Ne-20(n,tot) ENDFB-8.0
Energy(eV) XS(b)
1.00000E-05 33.6748
1.03125E-05 33.1632
1.06250E-05 32.6743
1.09375E-05 32.2065
1.12500E-05 31.7585
1.15625E-05 31.3287
1.18750E-05 30.9161
1.21875E-05 30.5194
1.25000E-05 30.1378
1.28125E-05 29.7702
1.31250E-05 29.4159
1.34375E-05 29.0740
1.37500E-05 28.7439
1.43750E-05 28.1163
1.50000E-05 27.5284
1.56250E-05 26.9763
1.62500E-05 26.4564
1.68750E-05 25.9657
1.75000E-05 25.5017
1.81250E-05 25.0619
1.87500E-05 24.6443
1.93750E-05 24.2472
2.00000E-05 23.8689
2.09375E-05 23.3337
2.18750E-05 22.8333
2.28125E-05 22.3642
2.37500E-05 21.9233
2.46875E-05 21.5078
2.56250E-05 21.1154
2.65625E-05 20.7441
2.75000E-05 20.3920
2.84375E-05 20.0576
2.93750E-05 19.7393
3.03125E-05 19.4360
3.12500E-05 19.1465
3.21875E-05 18.8699
3.31250E-05 18.6051
3.40625E-05 18.3514
3.50000E-05 18.1080
3.59375E-05 17.8742
3.68750E-05 17.6495
3.78125E-05 17.4332
3.87500E-05 17.2248
3.96875E-05 17.0240
4.06250E-05 16.8302
4.25000E-05 16.4620
4.43750E-05 16.1177
4.62500E-05 15.7946
4.81250E-05 15.4907
5.00000E-05 15.2043
5.15625E-05 14.9777
5.31250E-05 14.7612
5.46875E-05 14.5542
5.62500E-05 14.3559
5.78125E-05 14.1658
5.93750E-05 13.9833
6.09375E-05 13.8080
6.25000E-05 13.6393
6.40625E-05 13.4769
6.56250E-05 13.3204
6.71875E-05 13.1695
6.87500E-05 13.0237
7.18750E-05 12.7468
7.50000E-05 12.4876
7.81250E-05 12.2442
8.12500E-05 12.0152
8.43750E-05 11.7993
8.75000E-05 11.5951
9.06250E-05 11.4017
9.37500E-05 11.2183
9.68750E-05 11.0439
0.000100000 10.8778
0.000103125 10.7195
0.000106250 10.5684
0.000109375 10.4238
0.000112500 10.2855
0.000115625 10.1528
0.000118750 10.0256
0.000121875 9.90335
0.000125000 9.78581
0.000128125 9.67268
0.000131250 9.56370
0.000134375 9.45861
0.000137500 9.35721
0.000143750 9.16462
0.000150000 8.98446
0.000156250 8.81547
0.000162500 8.65655
0.000168750 8.50677
0.000175000 8.36529
0.000181250 8.23139
0.000187500 8.10442
0.000193750 7.98382
0.000200000 7.86909
0.000209375 7.70701
0.000218750 7.55580
0.000228125 7.41431
0.000237500 7.28156
0.000246875 7.15673
0.000256250 7.03906
0.000265625 6.92791
0.000275000 6.82272
0.000284375 6.72299
0.000293750 6.62828
0.000303125 6.53818
0.000312500 6.45235
0.000321875 6.37048
0.000331250 6.29227
0.000340625 6.21746
0.000350000 6.14584
0.000359375 6.07718
0.000368750 6.01129
0.000378125 5.94800
0.000387500 5.88715
0.000396875 5.82859
0.000406250 5.77219
0.000425000 5.66536
0.000443750 5.56579
0.000462500 5.47272
0.000481250 5.38550
0.000500000 5.30357
0.000515625 5.23898
0.000531250 5.17746
0.000546875 5.11880
0.000562500 5.06279
0.000578125 5.00924
0.000593750 4.95799
0.000609375 4.90889
0.000625000 4.86179
0.000640625 4.81658
0.000656250 4.77314
0.000671875 4.73135
0.000687500 4.69113
0.000718750 4.61503
0.000750000 4.54419
0.000781250 4.47807
0.000812500 4.41620
0.000843750 4.35816
0.000875000 4.30361
0.000906250 4.25222
0.000937500 4.20372
0.000968750 4.15787
0.00100000 4.11445
0.00103125 4.07327
0.00106250 4.03415
0.00109375 3.99695
0.00112500 3.96152
0.00115625 3.92773
0.00118750 3.89547
0.00121875 3.86464
0.00125000 3.83515
0.00128125 3.80690
0.00131250 3.77982
0.00134375 3.75384
0.00137500 3.72888
0.00143750 3.68184
0.00150000 3.63824
0.00156250 3.59772
0.00162500 3.55997
0.00168750 3.52471
0.00175000 3.49170
0.00181250 3.46072
0.00187500 3.43161
0.00193750 3.40419
0.00200000 3.37831
0.00209375 3.34214
0.00218750 3.30879
0.00228125 3.27795
0.00237500 3.24934
0.00246875 3.22274
0.00256250 3.19794
0.00265625 3.17476
0.00275000 3.15305
0.00284375 3.13267
0.00293750 3.11352
0.00303125 3.09547
0.00312500 3.07843
0.00321875 3.06234
0.00331250 3.04710
0.00340625 3.03265
0.00350000 3.01893
0.00359375 3.00590
0.00368750 2.99349
0.00378125 2.98166
0.00387500 2.97038
0.00396875 2.95961
0.00406250 2.94931
0.00425000 2.93002
0.00443750 2.91229
0.00462500 2.89594
0.00481250 2.88081
0.00500000 2.86677
0.00515625 2.85582
0.00531250 2.84549
0.00546875 2.83572
0.00562500 2.82649
0.00578125 2.81773
0.00593750 2.80942
0.00609375 2.80151
0.00625000 2.79399
0.00640625 2.78683
0.00656250 2.77999
0.00671875 2.77346
0.00687500 2.76721
0.00718750 2.75551
0.00750000 2.74475
0.00781250 2.73482
0.00812500 2.72563
0.00843750 2.71709
0.00875000 2.70915
0.00906250 2.70173
0.00937500 2.69479
0.00968750 2.68827
0.0100000 2.68216
0.0103125 2.67639
0.0106250 2.67096
0.0109375 2.66582
0.0112500 2.66096
0.0115625 2.65634
0.0118750 2.65197
0.0121875 2.64780
0.0125000 2.64384
0.0128125 2.64006
0.0131250 2.63646
0.0134375 2.63301
0.0137500 2.62972
0.0143750 2.62354
0.0150000 2.61785
0.0156250 2.61260
0.0162500 2.60774
0.0168750 2.60322
0.0175000 2.59900
0.0181250 2.59507
0.0187500 2.59138
0.0193750 2.58792
0.0200000 2.58467
0.0206625 2.58142
0.0213250 2.57837
0.0219875 2.57549
0.0226500 2.57277
0.0233125 2.57020
0.0239750 2.56776
0.0246375 2.56545
0.0253000 2.56325
0.0264578 2.55965
0.0276156 2.55634
0.0287734 2.55328
0.0299313 2.55045
0.0310891 2.54781
0.0322469 2.54536
0.0334047 2.54306
0.0345625 2.54091
0.0355274 2.53921
0.0364922 2.53760
0.0374570 2.53607
0.0384219 2.53461
0.0393867 2.53322
0.0403516 2.53189
0.0413164 2.53062
0.0422813 2.52940
0.0442109 2.52711
0.0461406 2.52500
0.0480703 2.52305
0.0500000 2.52124
0.0515625 2.51987
0.0531250 2.51857
0.0546875 2.51734
0.0562500 2.51617
0.0578125 2.51506
0.0593750 2.51401
0.0609375 2.51300
0.0625000 2.51205
0.0640625 2.51113
0.0656250 2.51026
0.0671875 2.50942
0.0687500 2.50862
0.0718750 2.50711
0.0750000 2.50572
0.0781250 2.50443
0.0812500 2.50323
0.0843750 2.50211
0.0875000 2.50107
0.0906250 2.50009
0.0937500 2.49917
0.0968750 2.49831
0.100000 2.49749
0.103125 2.49672
0.106250 2.49600
0.109375 2.49530
0.112500 2.49465
0.115625 2.49403
0.118750 2.49343
0.121875 2.49286
0.125000 2.49232
0.128125 2.49181
0.131250 2.49131
0.134375 2.49084
0.137500 2.49038
0.143750 2.48953
0.150000 2.48874
0.156250 2.48800
0.162500 2.48732
0.168750 2.48668
0.175000 2.48608
0.181250 2.48552
0.187500 2.48500
0.193750 2.48450
0.200000 2.48403
0.209375 2.48337
0.218750 2.48277
0.228125 2.48221
0.237500 2.48168
0.246875 2.48120
0.256250 2.48074
0.265625 2.48031
0.275000 2.47991
0.284375 2.47953
0.293750 2.47917
0.303125 2.47884
0.312500 2.47852
0.321875 2.47821
0.331250 2.47792
0.340625 2.47765
0.350000 2.47739
0.359375 2.47714
0.368750 2.47690
0.378125 2.47667
0.387500 2.47645
0.406250 2.47604
0.425000 2.47566
0.443750 2.47531
0.462500 2.47498
0.500000 2.47439
0.531250 2.47396
0.562500 2.47356
0.593750 2.47320
0.625000 2.47287
0.687500 2.47229
0.750000 2.47180
0.812500 2.47137
0.875000 2.47099
0.937500 2.47065
1.00000 2.47035
1.06250 2.47008
1.12500 2.46984
1.18750 2.46962
1.25000 2.46941
1.37500 2.46905
1.50000 2.46874
1.62500 2.46847
1.75000 2.46823
1.87500 2.46802
2.00000 2.46783
2.18750 2.46758
2.37500 2.46736
2.56250 2.46717
2.75000 2.46700
2.93750 2.46685
3.12500 2.46671
3.31250 2.46658
3.50000 2.46647
3.87500 2.46627
4.25000 2.46610
4.62500 2.46595
5.00000 2.46582
5.31250 2.46572
5.62500 2.46563
5.93750 2.46555
6.25000 2.46547
6.87500 2.46534
7.50000 2.46522
8.12500 2.46512
8.75000 2.46503
9.37500 2.46495
10.0000 2.46487
10.6250 2.46481
11.2500 2.46475
11.8750 2.46469
12.5000 2.46464
13.7500 2.46455
15.0000 2.46447
16.2500 2.46439
17.5000 2.46433
18.7500 2.46427
20.0000 2.46422
21.8750 2.46415
23.7500 2.46409
25.6250 2.46404
27.5000 2.46399
29.3750 2.46394
31.2500 2.46390
33.1250 2.46386
35.0000 2.46383
38.7500 2.46376
42.5000 2.46371
46.2500 2.46366
50.0000 2.46361
53.1250 2.46358
56.2500 2.46354
62.5000 2.46348
68.7500 2.46343
75.0000 2.46338
81.2500 2.46334
87.5000 2.46330
93.7500 2.46326
100.000 2.46322
112.500 2.46315
125.000 2.46309
137.500 2.46303
150.000 2.46297
162.500 2.46292
175.000 2.46287
200.000 2.46277
218.750 2.46270
237.500 2.46264
256.250 2.46257
275.000 2.46251
312.500 2.46238
350.000 2.46227
387.500 2.46215
425.000 2.46203
462.500 2.46192
500.000 2.46181
562.500 2.46163
625.000 2.46145
687.500 2.46127
750.000 2.46109
875.000 2.46074
1000.00 2.46039
1125.00 2.46005
1250.00 2.45971
1500.00 2.45902
1750.00 2.45834
2000.00 2.45766
2375.00 2.45665
2750.00 2.45563
3125.00 2.45462
3500.00 2.45361
4250.00 2.45160
5000.00 2.44958
6250.00 2.44622
7500.00 2.44286
8750.00 2.43951
10000.0 2.43615
12500.0 2.42943
15000.0 2.42270
17500.0 2.41596
20000.0 2.40921
23750.0 2.39906
27500.0 2.38888
35000.0 2.36842
42500.0 2.34778
50000.0 2.32693
56250.0 2.30938
62500.0 2.29165
75000.0 2.25555
87500.0 2.21846
100000 2.18017
102928 2.17099
111710 2.14291
116101 2.12851
120492 2.11382
124334 2.10067
126256 2.09399
128177 2.08720
130098 2.08032
132019 2.07334
133940 2.06624
134901 2.06264
135861 2.05903
136776 2.05558
137691 2.05214
138606 2.04874
139521 2.04545
140298 2.04286
140687 2.04169
141076 2.04064
141465 2.03976
141853 2.03910
142242 2.03880
142631 2.03900
143020 2.03998
143409 2.04213
143797 2.04611
143992 2.04917
144186 2.05323
144415 2.05979
144644 2.06901
144872 2.08230
145101 2.10166
145227 2.11628
145353 2.13487
145478 2.15884
145604 2.19028
145690 2.21759
145776 2.25122
145862 2.29312
145947 2.34627
146010 2.39471
146073 2.45362
146136 2.52609
146199 2.61625
146229 2.66746
146259 2.72476
146289 2.78933
146319 2.86242
146349 2.94580
146379 3.04075
146409 3.14969
146439 3.27517
146470 3.42906
146486 3.51574
146502 3.61000
146518 3.71269
146533 3.82479
146549 3.94741
146565 4.08182
146580 4.23048
146596 4.39316
146612 4.57391
146628 4.77264
146643 4.99447
146659 5.23955
146675 5.51259
146691 5.81744
146706 6.16087
146722 6.54362
146738 6.97348
146753 7.45685
146761 7.72250
146769 8.00075
146777 8.29968
146785 8.61269
146793 8.94876
146801 9.30031
146808 9.67725
146816 10.0708
146825 10.5193
146833 10.9881
146841 11.4889
146850 12.0100
146866 13.1347
146883 14.3498
146916 16.9262
146933 18.1826
146942 18.7742
146950 19.3175
146962 20.0389
146969 20.3427
146975 20.5991
146981 20.8127
146988 20.9759
146994 21.0863
147000 21.1421
147008 21.1340
147016 21.0338
147025 20.8447
147033 20.5721
147041 20.2236
147049 19.8081
147057 19.3355
147066 18.8228
147082 17.6863
147098 16.4891
147115 15.2783
147131 14.1136
147143 13.2922
147155 12.5162
147167 11.7895
147179 11.1188
147191 10.4926
147203 9.91493
147216 9.38342
147228 8.89901
147239 8.47190
147250 8.08166
147262 7.71881
147273 7.38719
147285 7.07859
147296 6.79618
147308 6.53515
147319 6.29365
147335 5.99178
147350 5.71948
147366 5.47344
147381 5.25196
147397 5.04935
147413 4.86469
147428 4.69607
147444 4.54279
147467 4.33925
147489 4.16014
147512 4.00047
147535 3.85878
147558 3.73146
147581 3.61762
147604 3.51502
147626 3.42223
147649 3.33771
147672 3.26116
147718 3.12714
147763 3.01446
147809 2.91900
147849 2.84758
147888 2.78488
147928 2.72923
147967 2.67986
148046 2.59612
148125 2.52822
148216 2.46443
148307 2.41272
148399 2.37008
148490 2.33454
148623 2.29237
148756 2.25880
148889 2.23143
149022 2.20882
149205 2.18357
149387 2.16335
149570 2.14683
149753 2.13311
150069 2.11427
150384 2.09971
150700 2.08812
151015 2.07864
151447 2.06815
151879 2.05967
152311 2.05264
152743 2.04659
153341 2.03951
153939 2.03347
154537 2.02818
155135 2.02344
155667 2.01959
156199 2.01601
156930 2.01143
157661 2.00714
158392 2.00309
159123 1.99923
160585 1.99192
162047 1.98500
164173 1.97539
166300 1.96612
168426 1.95705
170552 1.94811
172679 1.93923
174805 1.93038
176932 1.92154
179058 1.91268
184906 1.88814
190754 1.86321
196602 1.83776
202450 1.81171
212019 1.76755
221588 1.72132
240726 1.62167
250295 1.56748
259864 1.51011
269434 1.44922
279003 1.38447
288572 1.31549
298141 1.24187
307710 1.16333
317279 1.07908
323127 1.02449
328975 0.967798
334823 0.908802
340671 0.847342
346518 0.783764
352366 0.717891
358214 0.650084
364062 0.580784
381074 0.376275
385327 0.326962
387453 0.303056
389579 0.279818
391706 0.257387
393832 0.235922
395959 0.215603
398085 0.196627
399547 0.184522
401009 0.173186
402471 0.162746
403933 0.153362
404664 0.149027
405395 0.144992
406857 0.137892
407588 0.134766
408319 0.132095
409050 0.129712
409781 0.127631
410578 0.125958
411376 0.124734
412173 0.123962
412971 0.123666
413702 0.123976
414433 0.124746
415164 0.126018
415895 0.127845
416626 0.130179
417357 0.133113
418088 0.136632
418818 0.140724
419376 0.144300
419933 0.148322
421047 0.157317
421604 0.162548
422161 0.168126
422719 0.174032
423276 0.180570
424390 0.194745
425504 0.211038
426062 0.219769
426619 0.229234
427733 0.249422
428886 0.272875
429462 0.285340
430038 0.298634
431191 0.326950
431767 0.342163
432344 0.358106
432920 0.374605
433496 0.391851
434649 0.428664
435225 0.448057
435801 0.468459
436954 0.511153
438107 0.557398
439259 0.606717
440412 0.659385
441565 0.715704
442717 0.775285
443870 0.838641
445022 0.905583
446175 0.975944
447642 1.07139
449109 1.17267
450576 1.27967
451310 1.33459
452043 1.39228
453510 1.51034
454977 1.63364
456444 1.76193
457911 1.89494
459378 2.03278
460845 2.17595
463779 2.46731
469647 3.07192
473000 3.41713
477611 3.87050
479916 4.08667
482221 4.28777
484526 4.47635
486832 4.65381
489137 4.81352
491442 4.95682
493748 5.08785
496053 5.20255
498358 5.29961
500663 5.38545
502969 5.45851
505274 5.51498
509884 5.60090
514914 5.64541
519944 5.65713
524090 5.64286
528236 5.61455
536528 5.52647
544820 5.41283
553112 5.28729
564138 5.11622
575164 4.95038
586190 4.79424
597216 4.64985
615468 4.43733
633720 4.25400
638990 4.20595
644259 4.15985
650140 4.11058
656020 4.06347
661901 4.01837
667781 3.97516
673662 3.93370
679542 3.89388
685423 3.85560
691303 3.81875
703064 3.74894
714825 3.68376
720706 3.65270
726586 3.62256
732467 3.59327
738347 3.56477
744227 3.53699
750108 3.50986
755988 3.48333
761869 3.45733
767749 3.43180
773630 3.40669
779510 3.38192
785391 3.35744
791271 3.33318
797152 3.30907
808913 3.26101
811853 3.24898
814793 3.23691
817733 3.22480
820674 3.21264
823614 3.20042
826554 3.18812
829494 3.17574
832434 3.16326
835375 3.15067
838315 3.13797
841255 3.12515
844195 3.11220
847136 3.09913
850076 3.08596
853016 3.07270
855956 3.05939
858897 3.04610
861837 3.03294
863307 3.02646
864777 3.02007
866247 3.01383
867717 3.00776
869188 3.00193
870658 2.99640
872128 2.99126
873598 2.98662
875068 2.98262
875803 2.98090
876538 2.97941
877273 2.97818
878008 2.97723
878743 2.97661
879478 2.97636
880213 2.97652
880948 2.97715
881684 2.97832
882419 2.98008
883154 2.98253
883889 2.98576
884624 2.98987
885359 2.99499
886094 3.00127
886829 3.00887
887564 3.01797
888299 3.02882
889034 3.04167
889769 3.05682
890504 3.07465
891239 3.09558
891974 3.12011
892709 3.14883
893444 3.18246
894179 3.22184
894547 3.24399
894915 3.26797
895282 3.29393
895650 3.32204
896017 3.35250
896385 3.38551
896752 3.42128
897120 3.46006
897487 3.50213
897855 3.54776
898222 3.59728
898590 3.65104
898957 3.70941
899325 3.77278
899692 3.84160
900060 3.91634
900427 3.99753
900795 4.08566
901162 4.18132
901530 4.28511
901898 4.39765
902265 4.51951
902633 4.65134
903000 4.79373
903438 4.97774
903875 5.17825
904313 5.39575
904750 5.63038
905188 5.88178
905625 6.14887
906500 6.72161
906938 7.02037
907375 7.32087
907813 7.61687
908250 7.90120
908688 8.16617
909125 8.40408
909563 8.60779
910000 8.77135
910438 8.89055
910875 8.96323
911313 8.98944
911750 8.97128
912188 8.91253
912625 8.81826
913063 8.69423
913500 8.54644
914375 8.20243
915250 7.82641
915688 7.63597
916125 7.44760
916563 7.26327
917000 7.08444
917352 6.94541
917703 6.81093
918055 6.68125
918406 6.55652
918758 6.43673
919109 6.32192
919461 6.21196
919813 6.10681
920164 6.00629
920516 5.91025
920867 5.81855
921219 5.73103
921570 5.64746
921922 5.56771
922274 5.49156
922625 5.41887
922977 5.34943
923328 5.28310
923680 5.21971
924031 5.15913
924383 5.10118
924734 5.04576
925438 4.94190
926141 4.84656
926844 4.75890
927547 4.67812
928250 4.60353
928953 4.53451
929656 4.47053
930359 4.41110
931063 4.35579
931766 4.30421
932469 4.25603
933172 4.21094
933875 4.16867
934578 4.12898
935281 4.09165
935984 4.05648
936688 4.02331
937391 3.99196
938094 3.96230
938797 3.93420
939500 3.90754
940203 3.88222
940906 3.85813
941609 3.83520
942313 3.81334
943719 3.77254
945125 3.73522
946531 3.70095
947938 3.66937
949344 3.64015
950750 3.61304
952156 3.58781
953563 3.56425
954969 3.54219
956375 3.52149
957781 3.50201
959188 3.48365
960594 3.46628
962000 3.44984
963406 3.43423
964813 3.41939
967625 3.39176
970438 3.36652
973250 3.34333
976063 3.32189
978875 3.30197
981688 3.28338
984500 3.26595
987313 3.24954
990125 3.23405
992938 3.21936
995750 3.20539
1.00138E+06 3.17933
1.00700E+06 3.15538
1.01263E+06 3.13316
1.01825E+06 3.11238
1.02388E+06 3.09280
1.02950E+06 3.07425
1.03513E+06 3.05656
1.04075E+06 3.03961
1.04638E+06 3.02330
1.05200E+06 3.00753
1.05763E+06 2.99222
1.06325E+06 2.97732
1.06888E+06 2.96275
1.07450E+06 2.94847
1.08013E+06 2.93443
1.08575E+06 2.92059
1.09138E+06 2.90691
1.09700E+06 2.89335
1.10263E+06 2.87987
1.10825E+06 2.86644
1.11950E+06 2.83960
1.12513E+06 2.82611
1.13075E+06 2.81254
1.13638E+06 2.79885
1.14200E+06 2.78499
1.14763E+06 2.77092
1.15325E+06 2.75661
1.15888E+06 2.74200
1.16450E+06 2.72703
1.17013E+06 2.71165
1.17575E+06 2.69579
1.18138E+06 2.67936
1.18700E+06 2.66228
1.19263E+06 2.64443
1.19825E+06 2.62569
1.20388E+06 2.60591
1.20950E+06 2.58490
1.21231E+06 2.57386
1.21513E+06 2.56243
1.21794E+06 2.55055
1.22075E+06 2.53820
1.22356E+06 2.52532
1.22638E+06 2.51186
1.22919E+06 2.49774
1.23200E+06 2.48290
1.23481E+06 2.46724
1.23763E+06 2.45068
1.24044E+06 2.43306
1.24325E+06 2.41427
1.24606E+06 2.39411
1.24888E+06 2.37238
1.25028E+06 2.36084
1.25169E+06 2.34881
1.25309E+06 2.33626
1.25450E+06 2.32314
1.25591E+06 2.30940
1.25731E+06 2.29503
1.25872E+06 2.27998
1.26013E+06 2.26426
1.26153E+06 2.24787
1.26294E+06 2.23092
1.26434E+06 2.21364
1.26575E+06 2.19646
1.26645E+06 2.18816
1.26716E+06 2.18028
1.26786E+06 2.17306
1.26856E+06 2.16687
1.26892E+06 2.16429
1.26927E+06 2.16218
1.26962E+06 2.16061
1.26997E+06 2.15971
1.27032E+06 2.15962
1.27067E+06 2.16049
1.27102E+06 2.16253
1.27138E+06 2.16598
1.27173E+06 2.17115
1.27208E+06 2.17840
1.27243E+06 2.18816
1.27278E+06 2.20096
1.27313E+06 2.21752
1.27349E+06 2.23859
1.27384E+06 2.26532
1.27419E+06 2.29880
1.27436E+06 2.31865
1.27454E+06 2.34084
1.27472E+06 2.36563
1.27489E+06 2.39314
1.27507E+06 2.42401
1.27524E+06 2.45843
1.27542E+06 2.49682
1.27559E+06 2.53934
1.27577E+06 2.58696
1.27595E+06 2.63998
1.27612E+06 2.69895
1.27630E+06 2.76412
1.27647E+06 2.83688
1.27665E+06 2.91758
1.27683E+06 3.00694
1.27700E+06 3.10510
1.27719E+06 3.22173
1.27738E+06 3.35001
1.27756E+06 3.49202
1.27775E+06 3.64676
1.27794E+06 3.81611
1.27813E+06 3.99807
1.27831E+06 4.19389
1.27850E+06 4.40011
1.27869E+06 4.61677
1.27888E+06 4.83859
1.27906E+06 5.06405
1.27925E+06 5.28612
1.27944E+06 5.50191
1.27963E+06 5.70359
1.27981E+06 5.88785
1.28000E+06 6.04784
1.28019E+06 6.18127
1.28038E+06 6.28404
1.28056E+06 6.35599
1.28075E+06 6.39654
1.28094E+06 6.40766
1.28113E+06 6.39178
1.28131E+06 6.35203
1.28150E+06 6.29250
1.28169E+06 6.21635
1.28188E+06 6.12803
1.28225E+06 5.92614
1.28244E+06 5.81800
1.28263E+06 5.70875
1.28281E+06 5.59894
1.28300E+06 5.49103
1.28317E+06 5.39379
1.28334E+06 5.29908
1.28352E+06 5.20732
1.28369E+06 5.11878
1.28386E+06 5.03364
1.28403E+06 4.95202
1.28420E+06 4.87392
1.28438E+06 4.79978
1.28455E+06 4.72865
1.28472E+06 4.66091
1.28489E+06 4.59644
1.28506E+06 4.53514
1.28541E+06 4.42154
1.28575E+06 4.31934
1.28609E+06 4.22692
1.28644E+06 4.14362
1.28678E+06 4.06854
1.28713E+06 4.00104
1.28747E+06 3.94001
1.28781E+06 3.88499
1.28816E+06 3.83541
1.28850E+06 3.79089
1.28884E+06 3.75072
1.28919E+06 3.71465
1.28953E+06 3.68233
1.28988E+06 3.65353
1.29056E+06 3.60509
1.29125E+06 3.56770
1.29194E+06 3.53992
1.29263E+06 3.52079
1.29331E+06 3.50944
1.29400E+06 3.50530
1.29500E+06 3.51118
1.29600E+06 3.53024
1.29700E+06 3.56175
1.29800E+06 3.60518
1.29900E+06 3.66003
1.30000E+06 3.72577
1.30100E+06 3.80172
1.30200E+06 3.88694
1.30400E+06 4.07969
1.30600E+06 4.28877
1.30800E+06 4.49275
1.30900E+06 4.58525
1.31000E+06 4.66758
1.31100E+06 4.73737
1.31200E+06 4.79292
1.31300E+06 4.83323
1.31400E+06 4.85811
1.31500E+06 4.86805
1.31600E+06 4.86412
1.31700E+06 4.84781
1.31800E+06 4.82086
1.32000E+06 4.74236
1.32100E+06 4.69431
1.32200E+06 4.64246
1.32300E+06 4.58814
1.32400E+06 4.53243
1.32500E+06 4.47625
1.32600E+06 4.42031
1.32725E+06 4.35170
1.32850E+06 4.28521
1.32974E+06 4.22133
1.33099E+06 4.16040
1.33224E+06 4.10259
1.33348E+06 4.04807
1.33473E+06 3.99684
1.33598E+06 3.94885
1.33660E+06 3.92604
1.33723E+06 3.90403
1.33785E+06 3.88280
1.33847E+06 3.86238
1.33910E+06 3.84270
1.33972E+06 3.82380
1.34034E+06 3.80564
1.34097E+06 3.78825
1.34159E+06 3.77158
1.34221E+06 3.75569
1.34284E+06 3.74052
1.34346E+06 3.72612
1.34409E+06 3.71246
1.34471E+06 3.69958
1.34533E+06 3.68747
1.34596E+06 3.67616
1.34658E+06 3.66567
1.34720E+06 3.65602
1.34783E+06 3.64725
1.34845E+06 3.63942
1.34907E+06 3.63255
1.34970E+06 3.62673
1.35032E+06 3.62199
1.35094E+06 3.61845
1.35157E+06 3.61619
1.35219E+06 3.61534
1.35282E+06 3.61604
1.35344E+06 3.61845
1.35406E+06 3.62278
1.35438E+06 3.62573
1.35469E+06 3.62925
1.35500E+06 3.63339
1.35531E+06 3.63817
1.35562E+06 3.64366
1.35593E+06 3.64987
1.35625E+06 3.65690
1.35656E+06 3.66479
1.35687E+06 3.67360
1.35718E+06 3.68342
1.35749E+06 3.69432
1.35781E+06 3.70639
1.35812E+06 3.71973
1.35843E+06 3.73440
1.35874E+06 3.75062
1.35905E+06 3.76848
1.35936E+06 3.78813
1.35968E+06 3.80967
1.35999E+06 3.83342
1.36030E+06 3.85953
1.36061E+06 3.88824
1.36092E+06 3.91970
1.36123E+06 3.95440
1.36155E+06 3.99259
1.36186E+06 4.03462
1.36217E+06 4.08076
1.36248E+06 4.13175
1.36279E+06 4.18796
1.36311E+06 4.24996
1.36342E+06 4.31813
1.36373E+06 4.39359
1.36404E+06 4.47687
1.36435E+06 4.56874
1.36466E+06 4.66969
1.36498E+06 4.78119
1.36529E+06 4.90375
1.36560E+06 5.03809
1.36591E+06 5.18431
1.36617E+06 5.31412
1.36642E+06 5.45244
1.36668E+06 5.59900
1.36693E+06 5.75258
1.36744E+06 6.07858
1.36796E+06 6.41583
1.36821E+06 6.58173
1.36847E+06 6.74040
1.36872E+06 6.88731
1.36898E+06 7.01718
1.36923E+06 7.12626
1.36949E+06 7.20939
1.36975E+06 7.26370
1.37000E+06 7.28644
1.37026E+06 7.27687
1.37051E+06 7.23544
1.37077E+06 7.16421
1.37102E+06 7.06687
1.37128E+06 6.94678
1.37153E+06 6.80943
1.37179E+06 6.65839
1.37205E+06 6.49929
1.37256E+06 6.16919
1.37307E+06 5.84532
1.37332E+06 5.69031
1.37358E+06 5.54239
1.37384E+06 5.40111
1.37409E+06 5.26797
1.37432E+06 5.15594
1.37454E+06 5.05000
1.37477E+06 4.95001
1.37500E+06 4.85581
1.37523E+06 4.76715
1.37545E+06 4.68379
1.37568E+06 4.60545
1.37591E+06 4.53184
1.37613E+06 4.46268
1.37636E+06 4.39770
1.37659E+06 4.33663
1.37681E+06 4.27922
1.37704E+06 4.22521
1.37727E+06 4.17437
1.37750E+06 4.12650
1.37772E+06 4.08138
1.37795E+06 4.03883
1.37818E+06 3.99866
1.37840E+06 3.96072
1.37863E+06 3.92485
1.37886E+06 3.89092
1.37908E+06 3.85878
1.37931E+06 3.82831
1.37954E+06 3.79941
1.37977E+06 3.77198
1.37999E+06 3.74590
1.38022E+06 3.72111
1.38045E+06 3.69750
1.38090E+06 3.65358
1.38135E+06 3.61366
1.38181E+06 3.57711
1.38226E+06 3.54362
1.38272E+06 3.51284
1.38317E+06 3.48446
1.38362E+06 3.45823
1.38408E+06 3.43391
1.38453E+06 3.41131
1.38499E+06 3.39026
1.38544E+06 3.37059
1.38589E+06 3.35217
1.38635E+06 3.33490
1.38680E+06 3.31865
1.38726E+06 3.30334
1.38771E+06 3.28889
1.38816E+06 3.27522
1.38862E+06 3.26229
1.38907E+06 3.24999
1.38952E+06 3.23830
1.38998E+06 3.22716
1.39043E+06 3.21653
1.39089E+06 3.20637
1.39134E+06 3.19666
1.39179E+06 3.18735
1.39225E+06 3.17842
1.39270E+06 3.16985
1.39316E+06 3.16160
1.39406E+06 3.14600
1.39497E+06 3.13147
1.39588E+06 3.11791
1.39679E+06 3.10516
1.39770E+06 3.09315
1.39860E+06 3.08180
1.39951E+06 3.07104
1.40042E+06 3.06081
1.40133E+06 3.05107
1.40224E+06 3.04176
1.40314E+06 3.03285
1.40405E+06 3.02430
1.40496E+06 3.01608
1.40587E+06 3.00816
1.40677E+06 3.00051
1.40768E+06 2.99313
1.40859E+06 2.98599
1.40950E+06 2.97906
1.41041E+06 2.97235
1.41131E+06 2.96582
1.41222E+06 2.95947
1.41404E+06 2.94725
1.41585E+06 2.93563
1.41767E+06 2.92452
1.41948E+06 2.91387
1.42130E+06 2.90363
1.42312E+06 2.89377
1.42493E+06 2.88424
1.42675E+06 2.87500
1.42856E+06 2.86605
1.43038E+06 2.85734
1.43219E+06 2.84887
1.43401E+06 2.84060
1.43583E+06 2.83252
1.43764E+06 2.82461
1.43946E+06 2.81688
1.44127E+06 2.80929
1.44309E+06 2.80184
1.44490E+06 2.79451
1.44672E+06 2.78731
1.44854E+06 2.78021
1.45035E+06 2.77321
1.45217E+06 2.76631
1.45398E+06 2.75949
1.45761E+06 2.74608
1.46124E+06 2.73293
1.46488E+06 2.72000
1.46851E+06 2.70725
1.47214E+06 2.69464
1.47577E+06 2.68214
1.47940E+06 2.66971
1.48303E+06 2.65732
1.49030E+06 2.63258
1.49393E+06 2.62015
1.49756E+06 2.60766
1.50119E+06 2.59507
1.50482E+06 2.58235
1.50845E+06 2.56948
1.51208E+06 2.55643
1.51572E+06 2.54316
1.51935E+06 2.52966
1.52298E+06 2.51588
1.52661E+06 2.50179
1.53024E+06 2.48737
1.53387E+06 2.47257
1.53751E+06 2.45737
1.54114E+06 2.44174
1.54477E+06 2.42564
1.54840E+06 2.40906
1.55203E+06 2.39197
1.55566E+06 2.37440
1.55929E+06 2.35636
1.56292E+06 2.33793
1.57019E+06 2.30059
1.57382E+06 2.28235
1.57563E+06 2.27359
1.57745E+06 2.26523
1.57927E+06 2.25742
1.58108E+06 2.25038
1.58290E+06 2.24436
1.58471E+06 2.23970
1.58653E+06 2.23685
1.58834E+06 2.23637
1.59016E+06 2.23901
1.59198E+06 2.24572
1.59379E+06 2.25778
1.59561E+06 2.27684
1.59742E+06 2.30507
1.59924E+06 2.34526
1.60105E+06 2.40113
1.60196E+06 2.43635
1.60287E+06 2.47729
1.60378E+06 2.52479
1.60469E+06 2.57965
1.60559E+06 2.64280
1.60650E+06 2.71509
1.60734E+06 2.79150
1.60819E+06 2.87751
1.60903E+06 2.97386
1.60988E+06 3.08103
1.61072E+06 3.19970
1.61156E+06 3.32993
1.61241E+06 3.47150
1.61325E+06 3.62355
1.61494E+06 3.95422
1.61663E+06 4.30327
1.61831E+06 4.64270
1.61916E+06 4.79823
1.62000E+06 4.93866
1.62084E+06 5.06088
1.62169E+06 5.16214
1.62253E+06 5.24087
1.62338E+06 5.29657
1.62422E+06 5.32994
1.62506E+06 5.34232
1.62591E+06 5.33576
1.62675E+06 5.31277
1.62759E+06 5.27590
1.62844E+06 5.22780
1.63013E+06 5.10763
1.63181E+06 4.96883
1.63266E+06 4.89644
1.63350E+06 4.82372
1.63480E+06 4.71314
1.63609E+06 4.60595
1.63738E+06 4.50352
1.63868E+06 4.40666
1.63997E+06 4.31577
1.64127E+06 4.23096
1.64256E+06 4.15215
1.64385E+06 4.07916
1.64515E+06 4.01173
1.64644E+06 3.94960
1.64709E+06 3.92043
1.64774E+06 3.89248
1.64838E+06 3.86574
1.64903E+06 3.84015
1.64968E+06 3.81571
1.65032E+06 3.79238
1.65097E+06 3.77015
1.65162E+06 3.74900
1.65226E+06 3.72892
1.65291E+06 3.70990
1.65356E+06 3.69194
1.65421E+06 3.67502
1.65485E+06 3.65915
1.65550E+06 3.64437
1.65615E+06 3.63068
1.65679E+06 3.61811
1.65744E+06 3.60668
1.65809E+06 3.59644
1.65874E+06 3.58744
1.65938E+06 3.57975
1.66003E+06 3.57345
1.66068E+06 3.56863
1.66132E+06 3.56540
1.66197E+06 3.56390
1.66262E+06 3.56429
1.66326E+06 3.56676
1.66391E+06 3.57155
1.66456E+06 3.57893
1.66488E+06 3.58370
1.66521E+06 3.58923
1.66553E+06 3.59561
1.66585E+06 3.60284
1.66618E+06 3.61104
1.66650E+06 3.62023
1.66682E+06 3.63053
1.66715E+06 3.64197
1.66747E+06 3.65470
1.66779E+06 3.66874
1.66812E+06 3.68428
1.66844E+06 3.70136
1.66876E+06 3.72020
1.66909E+06 3.74083
1.66941E+06 3.76354
1.66973E+06 3.78835
1.67006E+06 3.81562
1.67038E+06 3.84538
1.67071E+06 3.87804
1.67103E+06 3.91366
1.67135E+06 3.95272
1.67168E+06 3.99528
1.67200E+06 4.04191
1.67232E+06 4.09269
1.67265E+06 4.14827
1.67297E+06 4.20872
1.67329E+06 4.27479
1.67362E+06 4.34650
1.67394E+06 4.42469
1.67426E+06 4.50926
1.67459E+06 4.60108
1.67491E+06 4.69987
1.67523E+06 4.80469
1.67555E+06 4.91638
1.67587E+06 5.03506
1.67618E+06 5.16028
1.67682E+06 5.42678
1.67746E+06 5.70424
1.67777E+06 5.84164
1.67809E+06 5.97323
1.67841E+06 6.09577
1.67873E+06 6.20530
1.67905E+06 6.29791
1.67936E+06 6.36997
1.67968E+06 6.41850
1.68000E+06 6.44148
1.68032E+06 6.43795
1.68064E+06 6.40829
1.68096E+06 6.35409
1.68127E+06 6.27786
1.68159E+06 6.18288
1.68191E+06 6.07281
1.68223E+06 5.95144
1.68255E+06 5.82240
1.68318E+06 5.55356
1.68382E+06 5.28784
1.68414E+06 5.16032
1.68445E+06 5.03781
1.68477E+06 4.92094
1.68509E+06 4.81009
1.68541E+06 4.70637
1.68572E+06 4.60900
1.68603E+06 4.51724
1.68635E+06 4.43147
1.68666E+06 4.35091
1.68698E+06 4.27576
1.68729E+06 4.20548
1.68761E+06 4.13975
1.68792E+06 4.07809
1.68823E+06 4.02059
1.68855E+06 3.96677
1.68886E+06 3.91636
1.68918E+06 3.86896
1.68949E+06 3.82464
1.68981E+06 3.78302
1.69012E+06 3.74391
1.69043E+06 3.70699
1.69075E+06 3.67234
1.69106E+06 3.63966
1.69138E+06 3.60882
1.69169E+06 3.57960
1.69201E+06 3.55204
1.69232E+06 3.52594
1.69263E+06 3.50121
1.69295E+06 3.47766
1.69326E+06 3.45536
1.69358E+06 3.43416
1.69389E+06 3.41397
1.69421E+06 3.39468
1.69452E+06 3.37633
1.69483E+06 3.35881
1.69515E+06 3.34207
1.69578E+06 3.31066
1.69641E+06 3.28182
1.69703E+06 3.25523
1.69766E+06 3.23068
1.69829E+06 3.20786
1.69892E+06 3.18666
1.69955E+06 3.16683
1.70018E+06 3.14830
1.70081E+06 3.13087
1.70143E+06 3.11450
1.70206E+06 3.09903
1.70269E+06 3.08442
1.70332E+06 3.07056
1.70395E+06 3.05742
1.70458E+06 3.04489
1.70520E+06 3.03296
1.70583E+06 3.02156
1.70646E+06 3.01064
1.70709E+06 3.00019
1.70772E+06 2.99016
1.70835E+06 2.98051
1.70898E+06 2.97124
1.70961E+06 2.96229
1.71023E+06 2.95366
1.71149E+06 2.93724
1.71275E+06 2.92183
1.71400E+06 2.90732
1.71526E+06 2.89359
1.71652E+06 2.88055
1.71778E+06 2.86814
1.71903E+06 2.85629
1.72029E+06 2.84495
1.72155E+06 2.83405
1.72280E+06 2.82357
1.72406E+06 2.81346
1.72532E+06 2.80369
1.72658E+06 2.79422
1.72783E+06 2.78505
1.72909E+06 2.77614
1.73035E+06 2.76747
1.73160E+06 2.75902
1.73286E+06 2.75078
1.73412E+06 2.74273
1.73538E+06 2.73486
1.73663E+06 2.72715
1.73789E+06 2.71959
1.74040E+06 2.70491
1.74292E+06 2.69071
1.74543E+06 2.67696
1.74795E+06 2.66357
1.75046E+06 2.65052
1.75298E+06 2.63775
1.75549E+06 2.62523
1.75800E+06 2.61293
1.76052E+06 2.60080
1.76303E+06 2.58883
1.76555E+06 2.57697
1.77057E+06 2.55353
1.77560E+06 2.53028
1.78063E+06 2.50701
1.78315E+06 2.49531
1.78566E+06 2.48352
1.78817E+06 2.47162
1.79069E+06 2.45959
1.79320E+06 2.44737
1.79572E+06 2.43493
1.79823E+06 2.42222
1.80075E+06 2.40919
1.80326E+06 2.39579
1.80577E+06 2.38194
1.80829E+06 2.36754
1.81080E+06 2.35251
1.81332E+06 2.33671
1.81583E+06 2.31998
1.81835E+06 2.30212
1.82086E+06 2.28289
1.82337E+06 2.26198
1.82589E+06 2.23898
1.82840E+06 2.21337
1.83092E+06 2.18459
1.83217E+06 2.16881
1.83343E+06 2.15202
1.83469E+06 2.13422
1.83594E+06 2.11551
1.83846E+06 2.07703
1.83909E+06 2.06796
1.83972E+06 2.05968
1.84034E+06 2.05268
1.84097E+06 2.04775
1.84160E+06 2.04601
1.84223E+06 2.04915
1.84254E+06 2.05332
1.84286E+06 2.05975
1.84317E+06 2.06896
1.84349E+06 2.08160
1.84380E+06 2.09854
1.84412E+06 2.12065
1.84443E+06 2.14919
1.84474E+06 2.18561
1.84506E+06 2.23186
1.84537E+06 2.28977
1.84569E+06 2.36194
1.84600E+06 2.45115
1.84619E+06 2.51394
1.84638E+06 2.58414
1.84656E+06 2.66309
1.84675E+06 2.75045
1.84694E+06 2.84750
1.84713E+06 2.95337
1.84731E+06 3.06903
1.84750E+06 3.19271
1.84788E+06 3.46214
1.84806E+06 3.60432
1.84825E+06 3.74709
1.84844E+06 3.88886
1.84863E+06 4.02472
1.84881E+06 4.15262
1.84900E+06 4.26791
1.84919E+06 4.36897
1.84938E+06 4.45259
1.84956E+06 4.51832
1.84975E+06 4.56504
1.84994E+06 4.59364
1.85013E+06 4.60493
1.85031E+06 4.60066
1.85050E+06 4.58285
1.85069E+06 4.55346
1.85088E+06 4.51491
1.85125E+06 4.41751
1.85163E+06 4.30441
1.85200E+06 4.18565
1.85223E+06 4.11268
1.85246E+06 4.04146
1.85269E+06 3.97237
1.85292E+06 3.90587
1.85315E+06 3.84225
1.85338E+06 3.78165
1.85384E+06 3.66960
1.85430E+06 3.56917
1.85476E+06 3.47985
1.85522E+06 3.40030
1.85568E+06 3.32938
1.85614E+06 3.26589
1.85660E+06 3.20913
1.85752E+06 3.11214
1.85844E+06 3.03278
1.85936E+06 2.96700
1.86028E+06 2.91174
1.86120E+06 2.86493
1.86212E+06 2.82482
1.86304E+06 2.79016
1.86489E+06 2.73355
1.86673E+06 2.68970
1.86857E+06 2.65516
1.87041E+06 2.62777
1.87225E+06 2.60607
1.87409E+06 2.58910
1.87593E+06 2.57618
1.87777E+06 2.56691
1.87961E+06 2.56103
1.88145E+06 2.55842
1.88329E+06 2.55908
1.88513E+06 2.56310
1.88697E+06 2.57066
1.88881E+06 2.58202
1.89065E+06 2.59756
1.89157E+06 2.60703
1.89249E+06 2.61773
1.89342E+06 2.62974
1.89434E+06 2.64312
1.89526E+06 2.65798
1.89618E+06 2.67442
1.89710E+06 2.69256
1.89802E+06 2.71248
1.89894E+06 2.73436
1.89986E+06 2.75828
1.90078E+06 2.78446
1.90170E+06 2.81298
1.90262E+06 2.84405
1.90354E+06 2.87786
1.90446E+06 2.91463
1.90538E+06 2.95448
1.90630E+06 2.99766
1.90722E+06 3.04438
1.90814E+06 3.09492
1.90906E+06 3.14938
1.90998E+06 3.20801
1.91090E+06 3.27101
1.91209E+06 3.35956
1.91329E+06 3.45600
1.91448E+06 3.56046
1.91568E+06 3.67276
1.91806E+06 3.91942
1.92045E+06 4.18785
1.92164E+06 4.32565
1.92284E+06 4.46220
1.92403E+06 4.59411
1.92523E+06 4.71754
1.92642E+06 4.82878
1.92761E+06 4.92393
1.92881E+06 4.99965
1.92940E+06 5.02937
1.93000E+06 5.05331
1.93119E+06 5.08341
1.93239E+06 5.08946
1.93358E+06 5.07215
1.93478E+06 5.03322
1.93597E+06 4.97511
1.93716E+06 4.90082
1.93836E+06 4.81361
1.93955E+06 4.71677
1.94194E+06 4.50547
1.94433E+06 4.28684
1.94552E+06 4.17913
1.94671E+06 4.07413
1.94791E+06 3.97264
1.94910E+06 3.87530
1.95035E+06 3.77826
1.95159E+06 3.68626
1.95284E+06 3.59934
1.95409E+06 3.51748
1.95534E+06 3.44056
1.95658E+06 3.36843
1.95783E+06 3.30090
1.95908E+06 3.23783
1.96032E+06 3.17890
1.96157E+06 3.12398
1.96282E+06 3.07287
1.96406E+06 3.02541
1.96531E+06 2.98143
1.96656E+06 2.94080
1.96780E+06 2.90339
1.96905E+06 2.86914
1.97030E+06 2.83791
1.97154E+06 2.80967
1.97279E+06 2.78440
1.97404E+06 2.76206
1.97529E+06 2.74268
1.97653E+06 2.72627
1.97778E+06 2.71290
1.97903E+06 2.70264
1.98027E+06 2.69557
1.98152E+06 2.69181
1.98277E+06 2.69151
1.98401E+06 2.69482
1.98526E+06 2.70193
1.98651E+06 2.71303
1.98775E+06 2.72833
1.98900E+06 2.74806
1.99069E+06 2.78228
1.99238E+06 2.82564
1.99406E+06 2.87877
1.99575E+06 2.94210
1.99744E+06 3.01610
1.99913E+06 3.10083
2.00081E+06 3.19627
2.00250E+06 3.30179
2.00419E+06 3.41651
2.00588E+06 3.53873
2.00925E+06 3.79672
2.01263E+06 4.05201
2.01431E+06 4.16974
2.01600E+06 4.27603
2.01769E+06 4.36794
2.01938E+06 4.44300
2.02106E+06 4.49978
2.02275E+06 4.53762
2.02444E+06 4.55683
2.02613E+06 4.55837
2.02781E+06 4.54380
2.02950E+06 4.51506
2.03119E+06 4.47421
2.03288E+06 4.42340
2.03625E+06 4.29970
2.03963E+06 4.15780
2.04300E+06 4.00793
2.04650E+06 3.85144
2.05000E+06 3.69847
2.05350E+06 3.55159
2.05700E+06 3.41203
2.06050E+06 3.28024
2.06400E+06 3.15630
2.06750E+06 3.04022
2.07100E+06 2.93213
2.07450E+06 2.83247
2.07800E+06 2.74221
2.08150E+06 2.66304
2.08500E+06 2.59768
2.08675E+06 2.57141
2.08850E+06 2.55027
2.09025E+06 2.53509
2.09200E+06 2.52683
2.09375E+06 2.52664
2.09550E+06 2.53585
2.09725E+06 2.55598
2.09900E+06 2.58877
2.10056E+06 2.63033
2.10213E+06 2.68496
2.10369E+06 2.75429
2.10525E+06 2.83978
2.10681E+06 2.94304
2.10838E+06 3.06525
2.10994E+06 3.20756
2.11150E+06 3.37029
2.11306E+06 3.55346
2.11463E+06 3.75581
2.11619E+06 3.97555
2.11775E+06 4.20922
2.11931E+06 4.45289
2.12088E+06 4.70105
2.12244E+06 4.94815
2.12400E+06 5.18774
2.12556E+06 5.41421
2.12713E+06 5.62198
2.12869E+06 5.80706
2.13025E+06 5.96628
2.13181E+06 6.09824
2.13338E+06 6.20250
2.13494E+06 6.28005
2.13650E+06 6.33251
2.13806E+06 6.36229
2.13963E+06 6.37202
2.14119E+06 6.36452
2.14275E+06 6.34253
2.14588E+06 6.26520
2.14900E+06 6.15772
2.15225E+06 6.02828
2.15550E+06 5.89114
2.15875E+06 5.75313
2.16200E+06 5.61846
2.16525E+06 5.48955
2.16850E+06 5.36761
2.17175E+06 5.25314
2.17500E+06 5.14618
2.17825E+06 5.04648
2.18150E+06 4.95366
2.18475E+06 4.86726
2.18800E+06 4.78682
2.19125E+06 4.71185
2.19450E+06 4.64190
2.20100E+06 4.51542
2.20100E+06 2.64230
2.30000E+06 2.57206
2.40000E+06 2.50248
2.50000E+06 2.44568
2.60000E+06 2.39013
2.70000E+06 2.34761
2.80000E+06 2.30625
2.90000E+06 2.26767
3.00000E+06 2.23017
3.10000E+06 2.19533
3.20000E+06 2.16150
3.30000E+06 2.13019
3.40000E+06 2.09981
3.50000E+06 2.07180
3.60000E+06 2.04468
3.70000E+06 2.01980
3.80000E+06 1.99571
3.84323E+06 1.98606
3.90000E+06 1.97363
4.00000E+06 1.95233
4.20000E+06 1.91416
4.40000E+06 1.88076
4.46201E+06 1.86888
4.60000E+06 1.85168
4.67040E+06 1.84253
4.80000E+06 1.82649
5.00000E+06 1.80475
5.06510E+06 1.79844
5.06510E+06 1.79844
5.20000E+06 1.78608
5.21708E+06 1.78247
5.21708E+06 1.78247
5.40000E+06 1.77009
5.41727E+06 1.76883
5.60000E+06 1.75639
5.80000E+06 1.74468
5.90501E+06 1.73255
5.90501E+06 1.73255
5.97506E+06 1.73406
6.00000E+06 1.73464
6.07970E+06 1.72555
6.07970E+06 1.72555
6.11267E+06 1.72562
6.20000E+06 1.72599
6.28431E+06 1.72268
6.40000E+06 1.71852
6.60000E+06 1.71199
6.61846E+06 1.71141
6.65382E+06 1.71033
6.65575E+06 1.71027
6.79893E+06 1.70627
6.80000E+06 1.70624
7.00000E+06 1.70111
7.04433E+06 1.69702
7.04433E+06 1.69702
7.06429E+06 1.69650
7.06429E+06 1.69650
7.20000E+06 1.69649
7.34293E+06 1.69065
7.35737E+06 1.69008
7.39354E+06 1.69195
7.40000E+06 1.69229
7.51735E+06 1.68473
7.51735E+06 1.68473
7.51805E+06 1.68475
7.55380E+06 1.68581
7.55380E+06 1.68581
7.60000E+06 1.68841
7.68703E+06 1.68649
7.76398E+06 1.68489
7.79635E+06 1.68425
7.79635E+06 1.68425
7.80000E+06 1.68482
8.00000E+06 1.68145
8.02906E+06 1.68029
8.22861E+06 1.67259
8.22861E+06 1.67259
8.50000E+06 1.67386
8.56963E+06 1.67273
8.59064E+06 1.67239
8.72408E+06 1.67037
8.80092E+06 1.66928
8.87947E+06 1.66822
8.87947E+06 1.66822
8.95882E+06 1.66761
9.00000E+06 1.66732
9.13893E+06 1.66133
9.13894E+06 1.66133
9.14734E+06 1.66103
9.22045E+06 1.65966
9.22045E+06 1.65966
9.26499E+06 1.65890
9.30070E+06 1.65848
9.30071E+06 1.65848
9.45407E+06 1.65954
9.45407E+06 1.65954
9.48663E+06 1.66084
9.48664E+06 1.66084
9.50000E+06 1.66179
9.57592E+06 1.65807
9.57592E+06 1.65807
9.65996E+06 1.65565
9.78811E+06 1.65623
9.96564E+06 1.65716
1.00000E+07 1.65736
1.03711E+07 1.65500
1.04362E+07 1.65464
1.04940E+07 1.65433
1.05000E+07 1.65430
1.07797E+07 1.65316
1.07915E+07 1.65312
1.09310E+07 1.65264
1.10000E+07 1.65241
1.12052E+07 1.65210
1.13206E+07 1.65197
1.14123E+07 1.65188
1.15000E+07 1.65181
1.20000E+07 1.65247
1.25000E+07 1.65429
1.25885E+07 1.65479
1.25885E+07 1.65479
1.26188E+07 1.65496
1.27375E+07 1.65563
1.28376E+07 1.65621
1.30000E+07 1.65716
1.35000E+07 1.66092
1.35420E+07 1.66129
1.35420E+07 1.66129
1.37928E+07 1.66355
1.37929E+07 1.66355
1.40000E+07 1.66542
1.45000E+07 1.67048
1.50000E+07 1.67596
1.51901E+07 1.67821
1.55000E+07 1.68182
1.55133E+07 1.68197
1.56367E+07 1.68340
1.58749E+07 1.68612
1.60000E+07 1.68753
1.65000E+07 1.69343
1.66211E+07 1.69482
1.67308E+07 1.69606
1.67717E+07 1.69652
1.68146E+07 1.69700
1.70000E+07 1.69905
1.74233E+07 1.70377
1.75000E+07 1.70460
1.75270E+07 1.70489
1.76099E+07 1.70577
1.78130E+07 1.70788
1.78299E+07 1.70806
1.78501E+07 1.70826
1.78501E+07 1.70827
1.79111E+07 1.70888
1.80000E+07 1.70978
1.84732E+07 1.71445
1.85000E+07 1.71470
1.85782E+07 1.71544
1.90000E+07 1.71919
1.95000E+07 1.72332
1.95635E+07 1.72380
1.95635E+07 1.72380
2.00000E+07 1.72696
2.10000E+07 1.73292
2.14472E+07 1.73478
2.15195E+07 1.73508
2.19003E+07 1.73666
2.20000E+07 1.73707
2.22096E+07 1.73753
2.22495E+07 1.73762
2.30000E+07 1.73928
2.40000E+07 1.73923
2.45465E+07 1.73812
2.50000E+07 1.73719
2.52482E+07 1.73625
2.60000E+07 1.73338
2.70000E+07 1.72810
2.80000E+07 1.72133
2.90000E+07 1.71331
3.00000E+07 1.70411
3.00000E+07 1.71036
3.00000E+07 1.71036
3.10000E+07 1.70187
3.20000E+07 1.69206
3.30000E+07 1.68166
3.40000E+07 1.67010
3.50000E+07 1.65806
3.60000E+07 1.64503
3.70000E+07 1.63164
3.80000E+07 1.61742
3.90000E+07 1.60292
4.00000E+07 1.58774
4.10000E+07 1.57238
4.20000E+07 1.55646
4.30000E+07 1.54045
4.40000E+07 1.52399
4.50000E+07 1.50751
4.60000E+07 1.49067
4.70000E+07 1.47388
4.80000E+07 1.45680
4.90000E+07 1.43984
5.00000E+07 1.42268
5.10000E+07 1.40568
5.20000E+07 1.38853
5.30000E+07 1.37158
5.40000E+07 1.35454
5.50000E+07 1.33772
5.60000E+07 1.32086
5.70000E+07 1.30425
5.80000E+07 1.28763
5.90000E+07 1.27128
6.00000E+07 1.25496
6.10000E+07 1.23909
6.20000E+07 1.22327
6.30000E+07 1.20751
6.40000E+07 1.19184
6.50000E+07 1.17625
6.60000E+07 1.16127
6.70000E+07 1.14639
6.80000E+07 1.13162
6.90000E+07 1.11697
7.00000E+07 1.10244
7.10000E+07 1.08848
7.20000E+07 1.07464
7.30000E+07 1.06084
7.40000E+07 1.04727
7.50000E+07 1.03384
7.60000E+07 1.02106
7.70000E+07 1.00831
7.80000E+07 0.995697
7.90000E+07 0.983360
8.00000E+07 0.971050
8.10000E+07 0.959480
8.20000E+07 0.947941
8.30000E+07 0.936671
8.40000E+07 0.925431
8.50000E+07 0.914340
8.60000E+07 0.903520
8.70000E+07 0.892726
8.80000E+07 0.882200
8.90000E+07 0.871701
9.00000E+07 0.861344
9.10000E+07 0.851752
9.20000E+07 0.842180
9.30000E+07 0.832870
9.40000E+07 0.823578
9.50000E+07 0.814424
9.60000E+07 0.805526
9.70000E+07 0.796642
9.80000E+07 0.787891
9.90000E+07 0.779391
1.00000E+08 0.770899
1.02000E+08 0.755175
1.04000E+08 0.739943
1.06000E+08 0.725073
1.08000E+08 0.710781
1.10000E+08 0.696936
1.12000E+08 0.683995
1.14000E+08 0.671586
1.16000E+08 0.659580
1.18000E+08 0.647959
1.20000E+08 0.636601
1.22000E+08 0.626172
1.24000E+08 0.616088
1.26000E+08 0.606230
1.28000E+08 0.596800
1.30000E+08 0.587678
1.32000E+08 0.579137
1.34000E+08 0.570986
1.36000E+08 0.563108
1.38000E+08 0.555394
1.40000E+08 0.548034
1.42000E+08 0.541107
1.44000E+08 0.534515
1.46000E+08 0.528146
1.48000E+08 0.521898
1.50000E+08 0.515957
1.52000E+08 0.510422
1.54000E+08 0.504990
1.56000E+08 0.499835
1.58000E+08 0.494769
1.60000E+08 0.489967
1.62000E+08 0.485616
1.64000E+08 0.481336
1.66000E+08 0.477302
1.68000E+08 0.473327
1.70000E+08 0.469587
1.72000E+08 0.465984
1.74000E+08 0.462431
1.76000E+08 0.459095
1.78000E+08 0.455800
1.80000E+08 0.452714
1.82000E+08 0.449899
1.84000E+08 0.447287
1.86000E+08 0.444785
1.88000E+08 0.442309
1.90000E+08 0.440024
1.92000E+08 0.437758
1.94000E+08 0.435678
1.96000E+08 0.433696
1.98000E+08 0.431729
2.00000E+08 0.429939
