Na-23(n,tot) ENDFB-8.0
Energy(eV) XS(b)
1.00000E-05 67.3269
1.03125E-05 66.3025
1.06250E-05 65.3238
1.09375E-05 64.3874
1.12500E-05 63.4903
1.15625E-05 62.6298
1.18750E-05 61.8037
1.21875E-05 61.0095
1.25000E-05 60.2453
1.28125E-05 59.5094
1.31250E-05 58.7999
1.34375E-05 58.1153
1.37500E-05 57.4543
1.43750E-05 56.1975
1.50000E-05 55.0203
1.54625E-05 54.1957
1.59249E-05 53.4073
1.63874E-05 52.6525
1.68498E-05 51.9292
1.68750E-05 51.8907
1.69531E-05 51.7717
1.70313E-05 51.6535
1.71875E-05 51.4196
1.75000E-05 50.9612
1.81250E-05 50.0803
1.87500E-05 49.2439
1.93750E-05 48.4485
2.00000E-05 47.6907
2.08306E-05 46.7370
2.16611E-05 45.8389
2.24917E-05 44.9911
2.33222E-05 44.1891
2.41528E-05 43.4290
2.49833E-05 42.7072
2.58139E-05 42.0206
2.66444E-05 41.3665
2.75000E-05 40.7240
2.84375E-05 40.0536
2.93750E-05 39.4157
3.03125E-05 38.8077
3.12500E-05 38.2274
3.21875E-05 37.6728
3.31250E-05 37.1419
3.40625E-05 36.6332
3.50000E-05 36.1451
3.62500E-05 35.5241
3.75000E-05 34.9346
3.87500E-05 34.3740
4.00000E-05 33.8400
4.12500E-05 33.3306
4.25000E-05 32.8439
4.43750E-05 32.1529
4.62500E-05 31.5047
4.81250E-05 30.8949
5.00000E-05 30.3199
5.15625E-05 29.8650
5.31250E-05 29.4305
5.46875E-05 29.0148
5.62500E-05 28.6167
5.78125E-05 28.2350
5.93750E-05 27.8685
6.09375E-05 27.5163
6.25000E-05 27.1775
6.40625E-05 26.8512
6.56250E-05 26.5368
6.71875E-05 26.2334
6.87500E-05 25.9406
7.18750E-05 25.3840
7.50000E-05 24.8629
7.75000E-05 24.4690
8.00000E-05 24.0940
8.37500E-05 23.5635
8.75000E-05 23.0678
9.06250E-05 22.6787
9.37500E-05 22.3094
9.68750E-05 21.9583
0.000100000 21.6239
0.000103125 21.3051
0.000106250 21.0005
0.000109375 20.7093
0.000112500 20.4305
0.000115625 20.1632
0.000118750 19.9066
0.000121875 19.6601
0.000125000 19.4230
0.000128125 19.1948
0.000131250 18.9749
0.000134375 18.7628
0.000137500 18.5581
0.000143750 18.1692
0.000150000 17.8052
0.000155000 17.5303
0.000160000 17.2686
0.000167500 16.8986
0.000175000 16.5531
0.000181250 16.2821
0.000187500 16.0249
0.000193750 15.7806
0.000200000 15.5480
0.000208203 15.2592
0.000216406 14.9873
0.000224609 14.7307
0.000232813 14.4882
0.000241016 14.2585
0.000249219 14.0405
0.000257422 13.8333
0.000265625 13.6360
0.000275000 13.4217
0.000284359 13.2188
0.000293719 13.0259
0.000293750 13.0252
0.000293853 13.0232
0.000293955 13.0211
0.000294160 13.0170
0.000294570 13.0088
0.000295391 12.9924
0.000297031 12.9599
0.000300313 12.8956
0.000306875 12.7703
0.000320000 12.5316
0.000335000 12.2768
0.000350000 12.0392
0.000359375 11.8985
0.000368750 11.7634
0.000378125 11.6336
0.000387500 11.5087
0.000396875 11.3884
0.000406250 11.2725
0.000425000 11.0527
0.000443750 10.8476
0.000462500 10.6556
0.000481250 10.4755
0.000500000 10.3061
0.000515625 10.1723
0.000531250 10.0448
0.000546875 9.92312
0.000562500 9.80677
0.000578125 9.69543
0.000593750 9.58875
0.000609375 9.48642
0.000625000 9.38818
0.000640000 9.29746
0.000667500 9.13963
0.000695000 8.99183
0.000722500 8.85307
0.000750000 8.72251
0.000781250 8.58314
0.000812500 8.45244
0.000843750 8.32957
0.000875000 8.21382
0.000906250 8.10454
0.000937500 8.00119
0.000968750 7.90327
0.00100000 7.81034
0.00103125 7.72200
0.00106250 7.63791
0.00109375 7.55775
0.00112500 7.48124
0.00115625 7.40812
0.00118750 7.33816
0.00121875 7.27115
0.00125000 7.20690
0.00128125 7.14523
0.00131250 7.08599
0.00134375 7.02902
0.00137500 6.97418
0.00143750 6.87045
0.00150000 6.77391
0.00154624 6.70667
0.00159248 6.64268
0.00163871 6.58170
0.00168495 6.52350
0.00168750 6.52038
0.00169531 6.51083
0.00170313 6.50135
0.00171875 6.48262
0.00175000 6.44599
0.00181250 6.37591
0.00187500 6.30974
0.00193750 6.24715
0.00200000 6.18785
0.00208305 6.11368
0.00216611 6.04430
0.00224916 5.97925
0.00233221 5.91810
0.00241526 5.86051
0.00249831 5.80615
0.00258137 5.75475
0.00266442 5.70606
0.00275000 5.65849
0.00284375 5.60916
0.00293750 5.56250
0.00303125 5.51828
0.00312500 5.47630
0.00321875 5.43640
0.00331250 5.39841
0.00340625 5.36219
0.00350000 5.32761
0.00362500 5.28385
0.00375000 5.24257
0.00387500 5.20354
0.00400000 5.16657
0.00412500 5.13149
0.00425000 5.09816
0.00443750 5.05113
0.00462500 5.00731
0.00481250 4.96638
0.00500000 4.92802
0.00515625 4.89785
0.00531250 4.86917
0.00546875 4.84186
0.00562500 4.81581
0.00578125 4.79095
0.00593750 4.76717
0.00609375 4.74441
0.00625000 4.72259
0.00640625 4.70166
0.00656250 4.68156
0.00671875 4.66223
0.00687500 4.64363
0.00718750 4.60843
0.00750000 4.57567
0.00775000 4.55102
0.00800000 4.52765
0.00837500 4.49473
0.00875000 4.46413
0.00906250 4.44022
0.00937500 4.41760
0.00968750 4.39618
0.0100000 4.37584
0.0103125 4.35649
0.0106250 4.33807
0.0109375 4.32050
0.0112500 4.30372
0.0115625 4.28766
0.0118750 4.27229
0.0121875 4.25754
0.0125000 4.24339
0.0128125 4.22979
0.0131250 4.21670
0.0134375 4.20410
0.0137500 4.19196
0.0143750 4.16893
0.0150000 4.14743
0.0154624 4.13242
0.0159248 4.11810
0.0163871 4.10441
0.0168495 4.09133
0.0168750 4.09062
0.0169531 4.08847
0.0170313 4.08634
0.0171875 4.08212
0.0175000 4.07385
0.0181250 4.05799
0.0187500 4.04298
0.0193750 4.02874
0.0200000 4.01521
0.0206625 4.00158
0.0213250 3.98863
0.0219875 3.97631
0.0226500 3.96457
0.0233125 3.95337
0.0239750 3.94267
0.0246375 3.93244
0.0253000 3.92264
0.0260161 3.91251
0.0267322 3.90282
0.0274482 3.89354
0.0281643 3.88465
0.0288804 3.87612
0.0295964 3.86792
0.0303125 3.86004
0.0310286 3.85245
0.0324607 3.83809
0.0338929 3.82472
0.0353250 3.81222
0.0367571 3.80050
0.0383786 3.78807
0.0400000 3.77644
0.0412500 3.76795
0.0425000 3.75986
0.0437500 3.75212
0.0450000 3.74471
0.0462500 3.73761
0.0475000 3.73079
0.0487500 3.72423
0.0500000 3.71792
0.0515625 3.71034
0.0531250 3.70310
0.0546875 3.69616
0.0562500 3.68950
0.0578125 3.68310
0.0593750 3.67694
0.0609375 3.67100
0.0625000 3.66527
0.0640625 3.65975
0.0656250 3.65440
0.0671875 3.64923
0.0687500 3.64422
0.0718750 3.63466
0.0750000 3.62566
0.0775000 3.61882
0.0800000 3.61228
0.0837500 3.60298
0.0875000 3.59425
0.0906250 3.58738
0.0937500 3.58085
0.0968750 3.57462
0.100000 3.56870
0.103125 3.56304
0.106250 3.55763
0.109375 3.55245
0.112500 3.54748
0.115625 3.54270
0.118750 3.53811
0.121875 3.53367
0.125000 3.52939
0.128125 3.52524
0.131250 3.52122
0.134375 3.51732
0.137500 3.51353
0.143750 3.50626
0.150000 3.49935
0.154624 3.49446
0.159248 3.48975
0.163871 3.48520
0.168495 3.48082
0.168750 3.48058
0.169531 3.47986
0.170313 3.47914
0.171875 3.47772
0.175000 3.47493
0.181250 3.46959
0.187500 3.46455
0.193750 3.45983
0.200000 3.45540
0.208305 3.44997
0.216610 3.44498
0.224916 3.44037
0.233221 3.43606
0.241526 3.43200
0.249831 3.42814
0.258136 3.42445
0.266441 3.42091
0.275000 3.41740
0.284375 3.41370
0.293750 3.41014
0.303125 3.40672
0.312500 3.40341
0.321875 3.40022
0.331250 3.39713
0.340625 3.39415
0.350000 3.39125
0.362500 3.38751
0.375000 3.38392
0.387500 3.38044
0.400000 3.37708
0.412500 3.37383
0.425000 3.37068
0.443750 3.36612
0.462500 3.36176
0.500000 3.35356
0.531250 3.34723
0.562500 3.34125
0.593750 3.33557
0.625000 3.33013
0.687500 3.31991
0.750000 3.31034
0.796237 3.30361
0.842474 3.29715
0.843750 3.29697
0.875000 3.29274
0.917864 3.28713
0.937500 3.28469
1.00000 3.27813
1.06250 3.27395
1.12500 3.27100
1.18750 3.26839
1.25000 3.26594
1.37500 3.26151
1.50000 3.25751
1.59248 3.25479
1.68495 3.25226
1.68750 3.25220
1.75000 3.25058
1.87500 3.24752
2.00000 3.24468
2.16610 3.24117
2.33221 3.23792
2.49831 3.23489
2.66441 3.23206
2.75000 3.23066
2.93750 3.22770
3.12500 3.22490
3.31250 3.22224
3.50000 3.21970
3.75000 3.21646
4.00000 3.21336
4.25000 3.21039
4.62500 3.20614
5.00000 3.20208
5.31250 3.19883
5.62500 3.19569
5.93750 3.19260
6.25000 3.18960
6.56250 3.18666
6.87500 3.18379
7.50000 3.17818
8.00000 3.17381
8.75000 3.16743
9.37500 3.16223
10.0000 3.15755
10.6250 3.15651
11.2500 3.15594
11.8750 3.15543
12.5000 3.15497
13.1250 3.15455
13.7500 3.15419
15.0000 3.15352
15.9248 3.15311
16.8495 3.15275
16.8750 3.15274
17.5000 3.15253
18.7500 3.15215
20.0000 3.15184
21.6610 3.15151
23.3221 3.15125
24.9831 3.15106
26.6441 3.15095
27.5000 3.15089
29.3750 3.15082
31.2500 3.15080
33.1250 3.15081
35.0000 3.15087
37.5000 3.15099
40.0000 3.15115
42.5000 3.15135
46.2500 3.15171
50.0000 3.15211
56.2500 3.15178
59.3750 3.15164
62.5000 3.15152
68.7500 3.15133
75.0000 3.15119
79.6237 3.15112
84.2474 3.15109
84.3750 3.15108
87.5000 3.15106
93.7500 3.15104
100.000 3.15108
112.500 3.15345
118.750 3.15467
125.000 3.15592
137.500 3.15842
150.000 3.16096
162.500 3.16342
175.000 3.16589
200.000 3.17091
225.000 3.17764
250.000 3.18443
275.000 3.19125
300.000 3.19809
325.000 3.20608
350.000 3.21406
375.000 3.22099
400.000 3.22795
425.000 3.23787
450.000 3.24778
475.000 3.25444
500.000 3.26111
525.000 3.27070
550.000 3.28039
575.000 3.29239
587.500 3.29841
593.750 3.30142
596.875 3.30291
600.000 3.30185
600.000 3.30185
600.381 3.30138
600.761 3.30099
601.522 3.30059
603.044 3.30103
606.088 3.30286
612.175 3.30657
624.350 3.31399
648.700 3.33000
697.400 3.36580
746.100 3.40710
794.800 3.45506
843.500 3.50526
892.200 3.56154
940.900 3.62635
989.600 3.70075
1000.00 3.71726
1032.50 3.77213
1065.00 3.83244
1130.00 3.97110
1181.25 4.09688
1232.50 4.24268
1283.75 4.40064
1335.00 4.58430
1386.25 4.79600
1437.50 5.03225
1488.75 5.31393
1540.00 5.63070
1578.57 5.90521
1597.85 6.05372
1617.13 6.21609
1636.41 6.38958
1655.70 6.58090
1694.26 7.00610
1713.54 7.23820
1732.83 7.48612
1771.39 8.06356
1790.67 8.37882
1809.96 8.71688
1829.24 9.06918
1848.52 9.44912
1867.46 9.84949
1886.39 10.2773
1905.33 10.7345
1924.26 11.2234
1943.20 11.7466
1962.13 12.3071
1981.07 12.9087
2000.00 13.5560
2026.72 14.5595
2040.08 15.0961
2053.44 15.6696
2080.15 16.9073
2093.51 17.5821
2106.87 18.2996
2120.23 19.0511
2133.59 19.8502
2146.95 20.7068
2160.31 21.6067
2173.67 22.5603
2187.03 23.5901
2200.39 24.6765
2213.74 25.8252
2233.18 27.6504
2252.61 29.6603
2272.04 31.8787
2291.47 34.3330
2310.90 37.0510
2320.62 38.5196
2330.33 40.0724
2340.05 41.7119
2349.76 43.4437
2359.48 45.2745
2369.19 47.2109
2382.55 50.0636
2395.91 53.1470
2409.27 56.4895
2422.63 60.1234
2435.99 64.0629
2449.35 68.3568
2462.71 73.0336
2476.07 78.1248
2489.43 83.6958
2502.78 89.7710
2516.14 96.4133
2529.50 103.691
2542.86 111.634
2556.22 120.339
2569.58 129.856
2582.94 140.234
2591.98 147.801
2601.03 155.817
2610.08 164.299
2619.12 173.258
2628.17 182.732
2637.21 192.642
2646.26 203.019
2655.30 213.885
2664.35 225.201
2673.39 236.975
2691.48 261.205
2709.57 286.120
2727.66 310.707
2736.49 322.153
2745.31 332.997
2754.13 343.133
2762.95 352.348
2771.77 360.349
2780.60 367.042
2789.42 372.408
2798.24 376.250
2810.00 378.773
2818.82 378.684
2827.64 376.987
2836.47 373.850
2845.29 369.252
2854.11 363.236
2862.93 356.079
2871.75 347.994
2880.58 339.064
2898.22 319.330
2915.86 298.225
2933.51 276.891
2951.15 255.932
2969.13 235.600
2978.12 225.903
2987.11 216.556
2996.10 207.606
3005.09 199.075
3014.08 190.845
3023.07 183.036
3032.06 175.617
3041.05 168.498
3050.04 161.787
3059.03 155.408
3068.02 149.307
3077.01 143.572
3086.00 138.111
3094.99 132.903
3104.50 127.732
3114.01 122.822
3123.51 118.153
3133.02 113.767
3142.53 109.610
3152.03 105.647
3161.54 101.914
3171.04 98.3816
3180.55 95.0068
3190.06 91.8144
3209.07 85.9114
3218.58 83.1686
3228.08 80.5764
3247.09 75.7291
3266.11 71.3457
3275.61 69.2926
3285.12 67.3449
3304.13 63.6945
3323.14 60.3657
3342.16 57.3037
3361.17 54.4984
3380.18 51.9162
3399.19 49.5289
3421.66 46.9473
3444.13 44.5845
3466.60 42.4209
3489.07 40.4378
3511.54 38.6086
3534.01 36.9418
3556.48 35.3756
3578.95 33.9269
3597.96 32.7974
3616.98 31.7265
3635.99 30.7091
3655.00 29.7647
3674.01 28.8706
3693.03 28.0170
3712.04 27.2178
3731.05 26.4631
3750.06 25.7401
3769.08 25.0570
3807.10 23.7954
3826.11 23.2068
3845.13 22.6528
3883.15 21.6097
3921.18 20.6658
3959.20 19.7987
3997.23 19.0032
4035.25 18.2749
4073.28 17.5998
4111.30 16.9784
4149.33 16.4025
4187.35 15.8659
4239.21 15.1960
4291.06 14.5870
4342.91 14.0309
4394.76 13.5245
4446.62 13.0558
4498.47 12.6241
4550.32 12.2257
4602.17 11.8574
4651.90 11.5302
4701.63 11.2253
4751.36 10.9401
4801.09 10.6732
4900.54 10.1863
5000.00 9.75455
5105.53 9.35808
5211.06 9.00630
5316.59 8.69256
5422.11 8.42101
5529.56 8.17952
5637.00 7.96113
5744.44 7.76632
5851.88 7.58945
5959.32 7.42628
6066.77 7.27078
6281.65 6.99751
6419.83 6.84594
6558.00 6.70804
6834.36 6.46252
7110.71 6.25186
7387.06 6.07443
7471.98 6.02546
7514.44 6.00187
7535.67 5.99029
7556.90 5.97881
7568.11 5.97254
7573.72 5.96941
7579.32 5.96629
7584.93 5.96321
7587.73 5.96169
7590.54 5.96019
7593.34 5.95871
7594.74 5.95800
7596.14 5.95729
7597.54 5.95662
7598.95 5.95599
7599.65 5.95570
7600.35 5.95545
7601.05 5.95524
7601.75 5.95511
7602.33 5.95509
7602.92 5.95518
7603.50 5.95543
7604.08 5.95590
7604.67 5.95667
7604.96 5.95720
7605.25 5.95784
7605.84 5.95954
7606.42 5.96190
7607.00 5.96510
7607.59 5.96930
7608.17 5.97469
7608.76 5.98143
7609.34 5.98965
7609.92 5.99944
7610.51 6.01078
7611.09 6.02358
7611.97 6.04503
7612.84 6.06803
7613.72 6.09077
7614.60 6.11108
7615.36 6.12500
7616.11 6.13417
7616.77 6.13758
7617.00 6.13772
7617.60 6.13551
7618.09 6.13093
7618.58 6.12404
7619.14 6.11392
7619.69 6.10171
7620.79 6.07316
7622.25 6.03353
7622.97 6.01525
7623.70 5.99897
7624.43 5.98500
7625.15 5.97345
7625.88 5.96422
7626.24 5.96040
7626.61 5.95706
7626.93 5.95448
7627.25 5.95221
7627.57 5.95021
7627.89 5.94847
7628.21 5.94695
7628.53 5.94562
7628.85 5.94447
7629.17 5.94347
7629.49 5.94259
7629.81 5.94183
7630.13 5.94116
7630.45 5.94057
7630.77 5.94005
7631.09 5.93959
7631.72 5.93880
7632.36 5.93813
7633.00 5.93756
7633.64 5.93705
7634.28 5.93658
7635.56 5.93571
7636.84 5.93489
7638.12 5.93411
7639.40 5.93335
7641.96 5.93186
7644.51 5.93041
7647.07 5.92897
7650.79 5.92690
7654.52 5.92486
7661.96 5.92080
7669.40 5.91678
7676.84 5.91278
7695.45 5.90288
7714.05 5.89308
7751.26 5.87377
7825.69 5.83625
7974.53 5.76529
8381.47 5.59554
8788.40 5.45068
9195.34 5.32505
9602.28 5.21704
10000.0 5.12547
10528.7 5.01774
11057.4 4.92591
11586.2 4.84578
12114.9 4.77399
12731.9 4.70115
13349.0 4.63726
13966.0 4.57981
14583.1 4.52869
15729.0 4.44728
16874.9 4.37922
18020.7 4.32131
19166.6 4.27129
20000.0 4.23899
21225.9 4.20007
22451.8 4.17281
24903.7 4.12946
26727.1 4.10476
29006.3 4.08066
30943.7 4.06495
31912.4 4.05849
32881.1 4.05292
33336.9 4.05059
33564.9 4.04949
33792.8 4.04845
34020.7 4.04745
34248.6 4.04649
34362.6 4.04604
34476.6 4.04559
34590.5 4.04517
34647.5 4.04496
34704.5 4.04476
34757.9 4.04458
34811.3 4.04440
34864.7 4.04423
34918.2 4.04408
34944.9 4.04400
34971.6 4.04393
34998.3 4.04387
35025.0 4.04382
35051.7 4.04378
35078.4 4.04375
35105.1 4.04374
35131.8 4.04375
35151.4 4.04379
35171.0 4.04386
35190.6 4.04397
35210.2 4.04414
35229.8 4.04441
35239.6 4.04459
35249.4 4.04483
35259.2 4.04513
35269.0 4.04551
35278.8 4.04601
35288.5 4.04667
35296.1 4.04736
35303.7 4.04825
35311.3 4.04944
35318.8 4.05106
35322.6 4.05210
35326.4 4.05335
35330.2 4.05488
35334.0 4.05677
35337.7 4.05917
35341.5 4.06226
35345.3 4.06641
35349.1 4.07223
35352.2 4.07923
35353.8 4.08397
35355.3 4.08997
35356.9 4.09776
35358.4 4.10810
35360.0 4.12206
35361.6 4.14102
35363.1 4.16722
35364.7 4.20318
35365.5 4.22582
35366.2 4.25217
35367.8 4.31753
35369.3 4.40430
35370.9 4.51636
35372.5 4.65745
35374.0 4.82891
35375.2 4.97940
35376.4 5.14724
35377.5 5.33063
35378.7 5.52662
35381.0 5.93882
35382.2 6.14365
35383.4 6.33714
35384.3 6.48364
35385.3 6.61399
35386.2 6.72745
35387.1 6.81852
35387.8 6.86711
35388.4 6.90358
35389.1 6.92858
35389.7 6.94101
35390.0 6.94264
35391.0 6.92671
35392.0 6.87923
35392.8 6.82261
35393.6 6.75064
35394.4 6.66287
35395.1 6.56319
35396.1 6.41892
35397.1 6.26040
35399.1 5.91963
35401.1 5.57041
35402.1 5.40221
35403.0 5.24363
35404.0 5.09352
35405.0 4.95505
35406.0 4.82913
35407.0 4.71726
35408.0 4.61710
35409.0 4.53029
35410.0 4.45434
35410.9 4.38992
35411.9 4.33469
35412.9 4.28826
35413.9 4.24954
35414.9 4.21776
35415.9 4.19127
35416.9 4.16974
35417.8 4.15193
35418.8 4.13750
35420.1 4.12259
35421.4 4.11102
35422.6 4.10196
35423.9 4.09480
35425.2 4.08904
35426.4 4.08436
35429.0 4.07723
35431.5 4.07202
35434.1 4.06803
35436.6 4.06487
35439.1 4.06230
35444.2 4.05836
35449.3 4.05551
35454.4 4.05337
35459.4 4.05172
35466.5 4.04997
35473.5 4.04867
35480.6 4.04765
35487.6 4.04685
35494.7 4.04621
35501.7 4.04568
35508.8 4.04524
35515.8 4.04487
35529.9 4.04429
35544.0 4.04385
35558.1 4.04351
35572.2 4.04323
35590.3 4.04294
35608.3 4.04271
35626.3 4.04252
35644.4 4.04236
35662.4 4.04222
35680.5 4.04210
35716.6 4.04188
35752.6 4.04170
35788.7 4.04154
35824.8 4.04139
35860.9 4.04126
35900.4 4.04113
35939.9 4.04100
35979.3 4.04088
36018.8 4.04076
36097.7 4.04054
36176.7 4.04033
36255.6 4.04014
36334.6 4.03995
36413.5 4.03977
36492.4 4.03960
36650.3 4.03928
36808.2 4.03899
37124.0 4.03849
37412.7 4.03812
37701.4 4.03785
38512.9 4.03763
39324.4 4.03826
40136.0 4.03846
40947.5 4.03195
41805.9 4.02676
42664.3 4.02377
43522.8 4.02372
44381.2 4.02776
45317.7 4.03915
45785.9 4.04873
46254.1 4.06186
46683.4 4.07799
47112.6 4.09915
47541.8 4.12692
47971.0 4.16354
48322.2 4.20266
48673.3 4.25261
49024.5 4.31702
49375.7 4.40131
49687.9 4.50016
49843.9 4.56069
50000.0 4.63055
50200.6 4.73729
50401.3 4.86807
50601.9 5.02903
50702.2 5.12444
50802.5 5.23176
50934.3 5.38348
51066.1 5.55733
51197.9 5.76787
51263.9 5.89000
51329.8 6.02479
51392.0 6.16594
51454.2 6.32168
51516.4 6.49373
51578.6 6.68518
51640.8 6.89258
51703.0 7.11746
51765.2 7.37092
51827.4 7.65564
51886.1 7.95895
51944.8 8.29913
52003.5 8.68260
52062.2 9.11664
52120.9 9.60671
52179.6 10.1643
52209.0 10.4704
52238.3 10.7988
52267.7 11.1484
52297.0 11.5218
52339.5 12.1218
52382.0 12.7837
52424.6 13.5121
52467.1 14.3104
52509.6 15.1923
52552.1 16.1620
52594.6 17.2274
52637.1 18.3940
52664.4 19.2014
52691.7 20.0563
52719.0 20.9499
52746.3 21.8871
52800.9 23.8895
52855.4 26.0437
52964.6 30.4986
53019.2 32.6183
53046.5 33.5789
53073.8 34.4485
53110.3 35.4351
53146.9 36.1755
53165.2 36.4428
53183.4 36.6345
53220.0 36.7928
53245.0 36.7219
53270.0 36.5016
53294.9 36.1336
53319.9 35.6451
53344.9 35.0425
53369.9 34.3470
53394.9 33.5587
53419.8 32.6911
53469.8 30.8244
53519.7 28.8467
53619.6 24.9413
53664.9 23.2786
53710.2 21.7154
53755.6 20.2716
53800.9 18.9479
53846.2 17.7357
53891.5 16.6343
53936.8 15.6339
53982.1 14.7272
54029.3 13.8740
54076.5 13.1041
54123.7 12.4093
54171.0 11.7824
54218.2 11.2146
54265.4 10.7009
54312.6 10.2348
54359.9 9.81091
54407.1 9.42526
54454.3 9.07330
54501.5 8.75163
54548.7 8.45734
54596.0 8.18708
54643.2 7.93896
54690.4 7.71056
54737.6 7.49981
54792.7 7.27430
54847.9 7.06816
54903.0 6.88149
54958.1 6.71204
55068.3 6.41382
55178.5 6.16174
55282.8 5.95784
55387.2 5.78057
55491.5 5.62664
55595.8 5.49329
55700.2 5.37575
55804.5 5.27317
56013.1 5.10283
56203.9 4.96330
56394.7 4.83680
56585.6 4.72945
56776.4 4.63766
56965.4 4.55957
57154.4 4.49093
57532.4 4.37777
57910.5 4.28828
58288.5 4.21605
58666.5 4.15684
59044.6 4.10725
59422.6 4.06510
59800.7 4.02882
60381.3 3.98198
60961.9 3.94696
61542.6 3.91856
62123.2 3.89469
62872.7 3.86899
63622.1 3.84753
64371.6 3.82925
65121.0 3.81343
66241.4 3.79330
67361.7 3.77632
68482.1 3.76155
69602.4 3.74809
71274.4 3.72941
72946.4 3.71284
74618.4 3.69776
76290.3 3.68385
78691.1 3.66541
81091.9 3.64831
85893.5 3.62338
88991.1 3.60940
92088.8 3.59001
98284.0 3.54703
99469.0 3.53903
100000 3.53633
101433 3.52914
102866 3.52201
105731 3.50796
107164 3.50103
108596 3.49392
110029 3.48662
111462 3.47938
111946 3.47696
112429 3.47455
112913 3.47216
113397 3.46978
113880 3.46743
114122 3.46627
114364 3.46512
114606 3.46398
114848 3.46287
115089 3.46178
115331 3.46073
115489 3.46007
115647 3.45944
115806 3.45885
115964 3.45833
116043 3.45810
116122 3.45790
116201 3.45772
116280 3.45758
116359 3.45750
116438 3.45750
116517 3.45758
116596 3.45780
116661 3.45811
116726 3.45860
116791 3.45932
116824 3.45978
116857 3.46035
116889 3.46107
116922 3.46194
116954 3.46303
116987 3.46438
117019 3.46609
117052 3.46828
117084 3.47115
117117 3.47490
117139 3.47820
117161 3.48239
117183 3.48776
117205 3.49481
117227 3.50430
117239 3.51035
117250 3.51747
117261 3.52607
117272 3.53645
117283 3.54931
117294 3.56554
117303 3.58280
117312 3.60448
117322 3.63225
117331 3.66869
117340 3.71801
117345 3.74996
117349 3.78747
117354 3.83404
117359 3.89018
117363 3.96188
117368 4.05085
117372 4.14280
117376 4.25622
117379 4.39649
117383 4.56967
117385 4.67059
117387 4.78206
117389 4.90479
117391 5.03933
117393 5.18609
117395 5.34528
117398 5.69033
117402 6.12162
117406 6.57849
117411 7.06023
117415 7.51217
117418 7.85545
117420 8.00544
117421 8.13742
117423 8.24897
117425 8.33799
117426 8.40275
117428 8.44196
117430 8.45460
117432 8.43400
117434 8.38423
117436 8.30612
117437 8.20132
117439 8.06420
117441 7.91197
117445 7.55487
117449 7.09130
117453 6.60464
117457 6.12889
117461 5.68941
117465 5.35481
117468 5.06231
117472 4.81225
117475 4.60764
117478 4.43241
117482 4.28820
117485 4.17000
117489 4.07565
117493 3.97937
117497 3.90468
117502 3.84327
117506 3.79451
117510 3.75341
117514 3.71998
117523 3.66723
117531 3.62847
117540 3.59914
117548 3.57638
117557 3.55852
117567 3.54147
117577 3.52809
117587 3.51719
117597 3.50838
117607 3.50102
117617 3.49493
117637 3.48542
117657 3.47839
117677 3.47303
117697 3.46881
117717 3.46548
117744 3.46205
117770 3.45941
117796 3.45731
117822 3.45562
117849 3.45426
117875 3.45311
117927 3.45128
117980 3.44990
118032 3.44883
118085 3.44797
118137 3.44725
118205 3.44647
118273 3.44581
118341 3.44522
118409 3.44470
118477 3.44422
118545 3.44376
118680 3.44293
118816 3.44215
118952 3.44140
119088 3.44069
119224 3.43999
119409 3.43905
119594 3.43812
119779 3.43720
119965 3.43629
120150 3.43538
120335 3.43448
120706 3.43267
121076 3.43086
121446 3.42906
121817 3.42726
122187 3.42546
123175 3.42067
124163 3.41589
125151 3.41112
126139 3.40637
128114 3.39689
130090 3.38747
133347 3.37700
134976 3.37184
136604 3.36673
137876 3.36278
139149 3.35889
139785 3.35698
140103 3.35603
140421 3.35511
140739 3.35419
141057 3.35330
141216 3.35287
141375 3.35245
141534 3.35205
141693 3.35167
141802 3.35142
141910 3.35120
142018 3.35100
142126 3.35083
142234 3.35071
142288 3.35067
142342 3.35065
142396 3.35066
142450 3.35070
142505 3.35078
142559 3.35093
142603 3.35110
142648 3.35135
142692 3.35170
142737 3.35218
142759 3.35249
142781 3.35287
142804 3.35333
142826 3.35388
142848 3.35457
142870 3.35544
142893 3.35654
142915 3.35796
142930 3.35920
142945 3.36074
142960 3.36268
142975 3.36519
142990 3.36856
142998 3.37068
143006 3.37316
143013 3.37618
143021 3.37981
143028 3.38438
143036 3.39012
143043 3.39727
143050 3.40663
143054 3.41263
143057 3.41975
143061 3.42830
143064 3.43838
143068 3.45105
143072 3.46670
143075 3.48612
143079 3.50948
143082 3.53909
143086 3.57427
143089 3.61791
143093 3.66816
143096 3.72802
143100 3.79358
143107 3.94218
143114 4.09108
143118 4.15595
143121 4.20620
143126 4.24565
143130 4.25407
143133 4.24248
143136 4.21925
143141 4.14178
143146 4.03216
143152 3.91086
143161 3.70891
143166 3.62727
143171 3.56082
143175 3.50894
143180 3.46970
143185 3.44064
143190 3.41934
143193 3.40884
143196 3.40022
143202 3.38717
143208 3.37802
143213 3.37150
143221 3.36549
143228 3.36120
143236 3.35795
143243 3.35549
143251 3.35354
143258 3.35202
143266 3.35078
143273 3.34977
143288 3.34824
143303 3.34715
143318 3.34635
143332 3.34576
143350 3.34524
143368 3.34485
143386 3.34456
143404 3.34434
143422 3.34417
143440 3.34403
143475 3.34382
143511 3.34367
143547 3.34356
143583 3.34347
143618 3.34339
143668 3.34328
143718 3.34319
143767 3.34309
143817 3.34300
143866 3.34290
143916 3.34280
144015 3.34259
144114 3.34236
144214 3.34213
144313 3.34190
144412 3.34165
144531 3.34135
144650 3.34104
144888 3.34040
145126 3.33975
145365 3.33909
145603 3.33843
145841 3.33775
146317 3.33639
146793 3.33503
147270 3.33366
148222 3.33091
150254 3.32511
153113 3.31800
155971 3.31168
161689 3.30041
166973 3.29264
169615 3.29297
172256 3.29638
174232 3.30033
176208 3.30586
178184 3.31351
180160 3.32530
181580 3.33784
183000 3.35311
184987 3.38088
185980 3.40117
186974 3.42533
187473 3.43914
187972 3.45413
188472 3.47063
188721 3.47952
188971 3.48887
189163 3.49646
189259 3.50038
189355 3.50441
189451 3.50858
189499 3.51073
189547 3.51293
189595 3.51520
189643 3.51757
189691 3.52008
189715 3.52140
189739 3.52278
189762 3.52418
189785 3.52568
189808 3.52732
189830 3.52916
189853 3.53129
189876 3.53388
189887 3.53542
189899 3.53719
189910 3.53929
189922 3.54182
189932 3.54462
189942 3.54813
189952 3.55268
189957 3.55552
189962 3.55887
189967 3.56288
189973 3.56778
189978 3.57385
189983 3.58154
189988 3.59143
189993 3.60433
189998 3.62127
190003 3.64351
190008 3.67052
190013 3.70458
190018 3.74653
190022 3.79663
190032 3.91742
190042 4.04674
190046 4.10221
190051 4.14512
190055 4.17274
190060 4.18235
190067 4.16377
190073 4.11241
190079 4.03643
190086 3.95060
190092 3.86426
190099 3.78858
190105 3.72651
190108 3.70091
190112 3.67877
190115 3.65928
190118 3.64328
190121 3.62980
190124 3.61849
190128 3.60901
190131 3.60107
190137 3.58880
190141 3.58299
190145 3.57824
190150 3.57405
190154 3.57068
190162 3.56551
190171 3.56179
190179 3.55905
190187 3.55697
190196 3.55542
190204 3.55422
190213 3.55331
190230 3.55208
190246 3.55142
190263 3.55113
190280 3.55111
190303 3.55137
190326 3.55188
190348 3.55254
190371 3.55331
190394 3.55417
190417 3.55510
190462 3.55709
190508 3.55924
190553 3.56149
190599 3.56381
190644 3.56619
190704 3.56938
190763 3.57264
190882 3.57939
191001 3.58636
191120 3.59357
191357 3.60870
191595 3.62482
192102 3.66291
192609 3.70684
193116 3.75787
193623 3.81767
194227 3.90080
194830 3.98980
195132 4.04396
195434 4.10627
196038 4.25305
196424 4.36696
196809 4.50515
197195 4.67617
197388 4.77610
197581 4.88662
197767 5.00795
197954 5.14586
198140 5.29777
198326 5.46342
198512 5.64513
198698 5.84240
198884 6.05635
199070 6.28722
199308 6.62491
199546 6.98360
200023 7.71975
200261 8.06616
200380 8.22923
200499 8.37502
200618 8.50407
200737 8.61365
200856 8.70407
200975 8.77200
201150 8.82558
201243 8.83142
201377 8.81206
201512 8.76114
201647 8.65075
201782 8.51320
202052 8.18142
202321 7.79471
202861 7.01241
203130 6.66492
203400 6.34501
203599 6.12995
203799 5.93270
203998 5.75417
204197 5.59738
204397 5.45643
204596 5.33019
204795 5.21819
204994 5.12152
205392 4.96729
205789 4.84952
206186 4.76172
206583 4.69914
206928 4.66253
207273 4.63923
207964 4.61511
208356 4.61151
208748 4.61815
209533 4.65684
211541 4.81263
212546 4.88321
213048 4.90605
213550 4.91648
214300 4.92312
215040 4.89250
215779 4.82834
216519 4.74085
217259 4.63518
218738 4.40939
219478 4.29970
219848 4.24807
220218 4.20546
221422 4.08408
222626 3.99022
223831 3.91467
225035 3.84525
226186 3.80036
227338 3.77673
228202 3.77453
229065 3.78773
229497 3.80112
229929 3.82215
230793 3.88693
231427 3.95583
232062 4.04861
232379 4.10593
232696 4.17289
233013 4.25048
233330 4.33959
233744 4.46746
234158 4.62597
234365 4.71916
234573 4.82367
234780 4.94000
234987 5.07026
235183 5.20797
235379 5.36109
235575 5.53131
235771 5.72066
235882 5.83731
235993 5.96177
236103 6.09498
236159 6.16048
236214 6.22660
236282 6.31373
236316 6.36070
236349 6.41074
236383 6.46484
236417 6.52483
236451 6.59361
236468 6.63286
236485 6.67626
236499 6.71772
236514 6.76467
236528 6.81894
236543 6.88270
236557 6.96074
236571 7.05867
236586 7.18626
236593 7.26590
236600 7.35843
236607 7.46015
236613 7.58090
236620 7.72543
236626 7.89950
236633 8.10975
236640 8.36333
236646 8.66693
236653 9.01950
236659 9.42604
236666 9.88126
236679 10.8746
236686 11.3797
236692 11.8208
236696 12.0035
236699 12.1543
236703 12.2688
236706 12.3439
236710 12.3788
236713 12.3608
236717 12.3008
236720 12.2010
236724 12.0643
236727 11.8949
236730 11.6976
236737 11.2414
236752 10.1466
236759 9.63561
236767 9.18540
236773 8.84289
236780 8.55559
236787 8.31877
236793 8.12833
236800 7.97131
236806 7.84596
236813 7.74264
236819 7.65981
236829 7.56499
236838 7.49374
236848 7.43989
236857 7.39945
236867 7.36850
236876 7.34526
236895 7.31599
236919 7.30149
236943 7.30428
236967 7.31859
236991 7.34024
237015 7.36699
237039 7.39726
237088 7.46563
237147 7.55879
237206 7.65837
237265 7.76247
237324 7.86970
237442 8.09143
237560 8.31957
237639 8.47378
237809 8.80827
237979 9.13684
238149 9.45224
238319 9.74106
238490 9.99742
238660 10.2181
238830 10.3813
239000 10.4875
239050 10.5073
239153 10.5310
239255 10.5323
239377 10.5043
239499 10.4416
239622 10.3539
239744 10.2389
239866 10.1067
239988 9.94598
240233 9.58655
240477 9.18319
240721 8.75639
241210 7.89141
241470 7.44546
241663 7.12301
241855 6.80407
241951 6.64414
242048 6.48276
242144 6.31819
242240 6.15733
242293 6.09950
242347 6.04739
242400 5.99297
242453 5.93635
242507 5.87844
242560 5.82143
242613 5.77052
242666 5.73653
242699 5.73062
242732 5.74770
242748 5.77044
242765 5.80601
242781 5.85821
242797 5.93025
242811 6.01069
242825 6.11154
242839 6.23555
242853 6.38409
242867 6.56119
242881 6.76673
242894 6.99993
242908 7.25601
242939 7.88803
242970 8.51756
242982 8.73253
242994 8.92281
243005 9.08611
243017 9.21979
243029 9.32359
243040 9.39635
243052 9.44104
243064 9.46053
243085 9.44285
243105 9.37170
243126 9.25967
243147 9.11968
243189 8.80937
243230 8.50704
243268 8.25812
243305 8.03345
243342 7.83164
243380 7.65048
243439 7.39873
243497 7.18049
243556 6.98770
243615 6.81558
243683 6.63765
243750 6.47580
243818 6.32669
243885 6.18810
243937 6.09418
243989 6.02231
244092 5.89620
244195 5.78172
244299 5.67687
244502 5.49235
244704 5.32929
244907 5.18256
245110 5.04998
245460 4.88545
245810 4.74582
246160 4.62446
246510 4.51792
247168 4.34913
247827 4.21143
248485 4.09698
249143 4.00053
250126 3.88204
251110 3.78653
252093 3.70720
253076 3.64054
254444 3.56365
255811 3.50026
257179 3.44677
258547 3.40071
260953 3.33271
263360 3.27568
265766 3.22580
268173 3.18039
271820 3.11537
275468 3.04968
279924 2.95857
282152 2.90334
284379 2.83703
285594 2.79355
286809 2.74311
288024 2.68325
289239 2.61041
289875 2.56523
290512 2.51393
291148 2.45514
291784 2.38697
292312 2.32133
292840 2.24587
293368 2.15791
293896 2.05444
294192 1.98807
294489 1.91511
294785 1.83439
295081 1.74541
295369 1.65089
295656 1.54899
295943 1.44118
296230 1.33253
296388 1.27627
296545 1.22640
296624 1.20531
296703 1.18788
296781 1.17474
296860 1.16775
296932 1.16771
297003 1.17508
297039 1.18208
297075 1.19155
297111 1.20377
297147 1.21896
297183 1.23748
297218 1.25952
297254 1.28542
297290 1.31544
297326 1.35004
297362 1.38960
297397 1.43451
297433 1.48513
297464 1.53323
297494 1.58587
297525 1.64346
297555 1.70625
297586 1.77448
297616 1.84840
297647 1.92821
297677 2.01414
297708 2.10634
297738 2.20497
297769 2.31014
297799 2.42191
297830 2.54030
297860 2.66527
297891 2.79672
297921 2.93446
297954 3.08644
297986 3.24443
298050 3.57844
298114 3.92858
298178 4.29016
298307 5.01732
298371 5.36500
298435 5.69185
298507 6.02458
298579 6.31554
298651 6.56085
298723 6.75938
298769 6.86504
298816 6.95316
298863 7.02397
298909 7.08022
298956 7.12441
299003 7.15924
299050 7.18880
299096 7.21905
299119 7.23650
299142 7.25762
299164 7.28495
299187 7.32197
299210 7.37585
299232 7.45884
299255 7.58911
299266 7.67686
299278 7.78285
299294 7.97806
299311 8.22960
299319 8.38171
299327 8.55231
299344 8.94432
299377 9.81694
299385 9.99693
299394 10.1360
299402 10.2225
299410 10.2486
299418 10.2120
299427 10.1147
299435 9.96423
299443 9.77196
299476 8.84304
299485 8.60757
299494 8.39030
299503 8.19328
299512 8.01666
299520 7.85940
299529 7.71986
299547 7.48816
299566 7.29314
299585 7.14617
299604 7.03478
299623 6.94749
299642 6.87480
299661 6.81269
299680 6.75777
299699 6.70886
299738 6.62093
299778 6.54506
299817 6.47714
299856 6.41471
299895 6.35611
299934 6.30061
300013 6.19675
300068 6.12766
300123 6.06164
300234 5.93713
300344 5.82130
300455 5.71329
300641 5.54686
300827 5.39752
301013 5.26334
301199 5.14247
301407 5.02078
301615 4.91172
302031 4.72512
302316 4.61725
302600 4.52231
302885 4.43800
303169 4.36301
303243 4.34488
303520 4.28122
303658 4.25176
303796 4.22384
303935 4.19719
304073 4.17185
304142 4.15958
304211 4.14778
304280 4.13610
304350 4.12484
304451 4.10897
304502 4.10135
304552 4.09396
304603 4.08683
304654 4.07999
304705 4.07357
304755 4.06770
304790 4.06411
304825 4.06098
304859 4.05850
304894 4.05691
304911 4.05658
304928 4.05669
304946 4.05734
304963 4.05872
304980 4.06104
304998 4.06463
305015 4.06999
305032 4.07780
305046 4.08673
305060 4.09895
305074 4.11604
305087 4.14033
305094 4.15648
305101 4.17566
305108 4.19875
305115 4.22646
305122 4.25953
305129 4.29858
305143 4.39569
305171 4.64685
305179 4.70232
305186 4.74570
305193 4.77282
305200 4.78086
305208 4.76754
305215 4.73270
305223 4.68015
305231 4.61526
305246 4.47172
305262 4.34110
305269 4.29018
305276 4.24670
305283 4.20960
305290 4.17827
305297 4.15194
305304 4.12984
305311 4.11124
305318 4.09552
305332 4.07052
305346 4.05204
305360 4.03784
305374 4.02661
305393 4.01422
305413 4.00455
305433 3.99667
305452 3.99005
305472 3.98433
305492 3.97931
305511 3.97481
305531 3.97071
305570 3.96337
305609 3.95684
305649 3.95084
305688 3.94525
305738 3.93848
305789 3.93206
305839 3.92591
305890 3.92000
305940 3.91423
305991 3.90861
306091 3.89772
306192 3.88721
306293 3.87706
306394 3.86720
306495 3.85763
306735 3.83586
306975 3.81528
307216 3.79578
307456 3.77735
307936 3.74308
308416 3.71199
309105 3.67208
309794 3.63670
311173 3.57664
312857 3.51795
314541 3.47045
317910 3.39775
320858 3.35018
325267 3.29608
329676 3.25530
334085 3.22379
338494 3.19911
343770 3.17810
347165 3.17496
350559 3.17623
353954 3.18328
357348 3.21351
359932 3.24570
362515 3.28538
365098 3.33499
367681 3.39800
369719 3.46046
371756 3.53383
373793 3.62690
375830 3.73666
377693 3.84941
378624 3.91834
379556 3.99733
380487 4.08607
381419 4.16482
382350 4.25347
383281 4.37365
384411 4.54438
385541 4.72501
387801 5.10575
388931 5.28634
390060 5.44389
390625 5.50909
391190 5.56169
391755 5.60148
392320 5.62702
392920 5.63833
393520 5.63362
394455 5.59586
395390 5.52552
396325 5.44834
397260 5.35533
399130 5.17176
401000 4.91090
403085 4.64165
404128 4.50615
405170 4.37992
407255 4.15662
409340 3.96752
411389 3.80978
413438 3.67491
414462 3.61478
415487 3.56504
417536 3.48758
419075 3.43914
420614 3.39855
421897 3.37129
423180 3.35100
424699 3.35499
425459 3.36524
426219 3.38431
426686 3.40246
427154 3.42523
427621 3.45508
428089 3.49811
428417 3.53869
428744 3.58814
429072 3.64695
429400 3.71909
430150 3.91326
430338 3.95599
430525 3.98952
430713 4.00964
430900 4.01456
430980 4.01172
431175 3.99550
431370 3.96423
431565 3.92092
431760 3.86972
432540 3.65952
432853 3.59028
433167 3.53535
433480 3.49382
433793 3.46147
434202 3.43050
434612 3.40971
435430 3.36014
436375 3.31789
437320 3.29506
437584 3.29728
438335 3.31135
439087 3.33617
439839 3.37332
440590 3.42519
441269 3.48880
441949 3.57342
442628 3.68818
442968 3.75820
443308 3.83756
443610 3.91857
443913 4.00955
444216 4.11212
444519 4.22869
444822 4.35938
445124 4.50687
445427 4.67277
445730 4.85693
446054 5.07676
446377 5.31441
447025 5.82992
447348 6.09269
447672 6.34288
447996 6.55621
448158 6.64295
448319 6.71310
448570 6.78310
448820 6.80572
448948 6.79682
449077 6.77413
449333 6.69072
449590 6.56690
449846 6.40568
450359 6.01555
450873 5.59727
451145 5.38128
451417 5.17650
451690 4.98246
451962 4.80693
452235 4.64663
452507 4.49993
452780 4.36781
453052 4.24840
453356 4.12898
453659 4.02353
453963 3.92839
454266 3.84343
454873 3.69333
455480 3.56243
456110 3.44959
456740 3.35495
457370 3.27507
458000 3.20536
458655 3.14281
459310 3.08791
459696 3.06172
460083 3.03744
460469 3.01482
460855 2.99371
461241 2.97393
461628 2.95534
462014 2.93781
462400 2.92125
462786 2.90556
463173 2.89064
463945 2.86288
464718 2.83746
465490 2.81399
466028 2.79948
466566 2.78568
467104 2.77250
467641 2.75988
468717 2.73609
469793 2.71392
470868 2.69307
471944 2.67331
473019 2.65445
474095 2.63634
475171 2.61886
476246 2.60191
477322 2.58541
478398 2.56930
479473 2.55352
480549 2.53804
482700 2.50782
484255 2.48651
485810 2.46560
488085 2.43800
490360 2.41123
491500 2.40403
493610 2.39140
495560 2.37302
497720 2.33844
500000 2.30384
500000 2.23005
500110 2.22873
504010 2.17975
507800 2.13199
508170 2.16467
508390 2.50745
508520 2.93005
508600 3.15034
508670 2.98434
508860 2.38482
509010 2.17161
509270 2.10660
511400 2.07415
519460 1.93341
522560 1.99350
526940 2.14530
527410 2.18407
529820 2.38354
533090 2.79526
536790 3.33691
539130 3.61864
541060 3.77696
541770 3.83532
543720 3.92196
546150 3.97978
547723 3.98924
548540 3.99416
553220 3.97256
558100 3.93641
559260 3.92702
562950 3.89716
563400 3.97080
563680 4.21396
563790 4.50794
563940 4.91648
563990 5.04096
564080 4.89841
564280 4.25664
564460 4.00963
564800 3.88409
565820 3.89706
566260 3.84068
569900 3.84514
572910 3.88496
574590 3.90721
580310 4.06915
583410 4.16734
583970 4.20372
587580 4.43880
590560 4.71044
592420 4.87652
593600 4.98190
596320 5.13045
596460 5.13809
597590 5.21307
598790 5.34632
598920 5.41156
599260 5.58312
599560 6.05112
599740 6.34554
599920 6.00456
600000 5.86988
600160 5.60022
600400 5.30548
600750 5.16693
600870 5.14791
601410 5.06283
604120 4.85156
605340 4.75656
606720 4.65442
607370 4.60637
609970 4.48937
611480 4.42148
614700 4.29433
615820 4.27105
619460 4.19614
621670 4.20861
622560 4.21357
624670 4.29809
625570 4.44116
626620 4.60778
627110 4.70191
627590 4.59863
628980 4.33583
630120 4.31252
630360 4.30751
633370 4.33767
634100 4.34513
635970 4.37201
636700 4.38264
639220 4.45655
642790 4.56100
648970 4.79914
652780 4.94597
657420 5.18917
660000 5.32440
663350 5.49997
668220 5.78173
669770 5.90714
673910 6.24183
681390 6.84280
682520 7.07751
683010 7.99760
683420 8.81439
683580 8.42020
684070 7.36869
684800 7.19009
686510 7.31218
687970 7.45718
688780 7.53762
693940 7.96949
695770 8.11652
698380 8.32645
701130 8.52353
702280 8.57892
703562 8.64074
704440 8.68306
707480 8.76944
707750 8.77700
710350 8.81458
713330 8.75062
713870 8.73942
718170 8.51435
718530 8.48645
721780 8.23480
722540 8.17609
725680 7.84935
726060 7.80993
730280 7.25594
733480 6.82330
735490 6.55158
738680 6.11050
740990 5.79110
744860 5.25590
746830 5.07755
747130 5.07433
747680 5.06816
748100 5.53761
748730 5.00228
749300 4.85214
750000 4.71949
750040 4.71176
752330 4.59628
754910 4.46624
757260 4.39402
757530 4.39170
758940 4.37957
761630 4.53122
762199 4.54460
762730 4.55709
763470 4.57471
765150 5.31130
765660 5.80253
766160 5.91795
766500 6.19248
767000 6.38750
768850 6.30080
770530 6.49239
771700 6.62601
773210 6.90033
776070 7.08095
777910 7.13146
779590 7.08814
780871 7.04404
780930 7.04201
782950 6.97255
786140 6.83532
786780 6.79815
789500 6.64026
796050 6.16359
800000 5.88852
801730 5.76800
804450 5.57848
810160 5.22458
812780 5.09080
818220 4.81292
826440 4.51182
827290 4.48073
832660 4.30006
839047 4.14806
840550 4.11230
842690 4.06714
850460 3.90294
852440 3.88157
857850 3.82342
858940 3.82039
865740 3.80169
871940 3.82945
873800 3.83783
880000 3.91988
880350 3.92448
883640 4.05438
886570 4.17007
892280 4.48068
893390 4.58550
896640 4.89235
897290 4.95200
899160 5.12351
902290 5.46153
902490 5.47756
904560 5.64615
905700 5.73285
907520 5.90031
911390 5.87699
911590 5.86962
913210 5.80794
915030 5.68648
917300 5.47851
922760 4.98161
926540 4.66434
928680 4.48458
933690 4.14376
936410 3.95883
943240 3.62948
944100 3.60140
946420 3.52548
949610 3.35790
952570 3.28865
953200 3.27981
959050 3.19837
962120 3.15571
964250 3.15078
964630 3.14991
965760 3.23650
966450 3.72753
966670 4.61180
967130 4.98726
967810 4.73319
968270 4.21315
968490 3.46772
969180 3.21336
971220 3.20195
973350 3.27677
974180 3.30592
976460 3.46769
979190 3.75655
980550 3.92992
981920 3.99931
982450 4.00053
984420 4.00519
985790 3.91265
987000 3.81588
988970 3.65855
992200 3.43251
992610 3.40408
996100 3.25520
997620 3.19027
999440 3.20187
1.00000E+06 3.17168
1.00010E+06 3.16629
1.00190E+06 3.06902
1.00560E+06 3.09795
1.00730E+06 3.09500
1.00900E+06 3.09211
1.01260E+06 3.16137
1.01320E+06 3.18220
1.01760E+06 3.33479
1.02360E+06 3.65260
1.02510E+06 3.71031
1.02900E+06 3.86058
1.03170E+06 3.91257
1.03350E+06 3.92100
1.03540E+06 3.92987
1.03820E+06 3.88007
1.03930E+06 3.86065
1.04400E+06 3.83735
1.04900E+06 3.91892
1.05110E+06 3.95309
1.05610E+06 4.15535
1.05970E+06 4.39062
1.06220E+06 4.55398
1.06450E+06 4.65124
1.06630E+06 4.72729
1.06950E+06 4.76776
1.07280E+06 4.70435
1.07340E+06 4.69272
1.07840E+06 4.48458
1.08000E+06 4.40645
1.08290E+06 4.26513
1.08520E+06 4.10913
1.08660E+06 3.97619
1.08770E+06 4.06862
1.08830E+06 4.19991
1.08910E+06 4.37492
1.09000E+06 4.44421
1.09051E+06 4.42465
1.09420E+06 4.28242
1.09840E+06 4.14374
1.10420E+06 3.96748
1.10800E+06 3.84619
1.10960E+06 3.80282
1.11090E+06 3.96141
1.11120E+06 3.99777
1.11310E+06 3.73350
1.11990E+06 3.63378
1.12410E+06 3.56651
1.12990E+06 3.47354
1.13360E+06 3.43955
1.13370E+06 3.43881
1.13950E+06 3.43229
1.14150E+06 3.43008
1.14560E+06 3.54707
1.14890E+06 3.41280
1.15510E+06 3.26540
1.15740E+06 3.24354
1.15920E+06 3.22641
1.16380E+06 3.27413
1.16780E+06 3.34340
1.17080E+06 3.46478
1.17170E+06 3.48356
1.17350E+06 3.52108
1.17620E+06 3.48641
1.18010E+06 3.35552
1.18330E+06 3.24809
1.18680E+06 3.14844
1.19220E+06 3.06605
1.19630E+06 3.05307
1.19910E+06 3.07289
1.20060E+06 3.08339
1.20490E+06 3.20040
1.20630E+06 3.25255
1.21060E+06 3.41276
1.21280E+06 3.70306
1.21470E+06 3.61652
1.21980E+06 3.77665
1.22420E+06 3.86514
1.22520E+06 3.88524
1.22930E+06 3.91124
1.23370E+06 3.86531
1.23390E+06 3.86344
1.23770E+06 3.78113
1.24200E+06 3.58610
1.24440E+06 3.50128
1.25450E+06 3.14412
1.26320E+06 2.91009
1.26830E+06 2.83042
1.26905E+06 2.81867
1.27180E+06 2.77566
1.27890E+06 2.71506
1.28460E+06 2.69337
1.28970E+06 2.73265
1.29020E+06 2.73669
1.29590E+06 2.80624
1.29810E+06 2.92309
1.30120E+06 3.05744
1.30480E+06 3.41283
1.30650E+06 3.49084
1.30760E+06 3.59231
1.30960E+06 3.77675
1.31220E+06 3.99783
1.31410E+06 4.08466
1.31620E+06 4.13221
1.31790E+06 4.08872
1.31930E+06 4.02832
1.32100E+06 3.91123
1.32200E+06 4.19280
1.32340E+06 3.81580
1.32530E+06 3.62083
1.32900E+06 3.38558
1.32980E+06 3.33478
1.33320E+06 3.18742
1.33700E+06 2.97512
1.34340E+06 2.79306
1.35130E+06 2.62841
1.35480E+06 2.60234
1.35530E+06 2.60117
1.36370E+06 2.58066
1.36600E+06 2.55083
1.36870E+06 2.51566
1.37220E+06 2.48105
1.37650E+06 2.49838
1.38060E+06 2.55901
1.38340E+06 2.62409
1.38500E+06 2.63120
1.38730E+06 2.64136
1.38890E+06 2.94912
1.39060E+06 3.55587
1.39110E+06 3.90260
1.39200E+06 4.12756
1.39300E+06 3.86352
1.39420E+06 3.45174
1.39560E+06 3.17443
1.39750E+06 3.01855
1.39930E+06 2.98298
1.40390E+06 2.89270
1.41130E+06 2.86576
1.41940E+06 2.83643
1.42189E+06 2.78095
1.42560E+06 2.69843
1.42680E+06 2.67183
1.42940E+06 2.96213
1.43110E+06 2.63273
1.43350E+06 2.58073
1.43870E+06 2.56663
1.45110E+06 2.53302
1.45540E+06 2.53452
1.46400E+06 2.53737
1.47040E+06 2.57640
1.47280E+06 2.67169
1.47320E+06 2.66246
1.47830E+06 2.54585
1.48500E+06 2.45943
1.49020E+06 2.36845
1.49310E+06 2.32486
1.49570E+06 2.32937
1.49760E+06 2.48966
1.49830E+06 2.50818
1.50080E+06 2.57474
1.50430E+06 2.51675
1.50870E+06 2.41566
1.51540E+06 2.30731
1.52590E+06 2.24945
1.53700E+06 2.21341
1.53760E+06 2.21604
1.54030E+06 2.22799
1.54380E+06 2.32896
1.54550E+06 2.26402
1.54849E+06 2.21495
1.54990E+06 2.19174
1.55070E+06 2.19756
1.55690E+06 2.24227
1.56020E+06 2.55286
1.56250E+06 2.28574
1.56950E+06 2.30007
1.57510E+06 2.40124
1.57930E+06 2.54674
1.58240E+06 2.65399
1.58790E+06 2.96451
1.59230E+06 3.37628
1.59580E+06 3.80251
1.59910E+06 4.30814
1.60110E+06 4.67634
1.60170E+06 4.81371
1.60320E+06 4.93643
1.60430E+06 4.82807
1.60550E+06 4.68841
1.60610E+06 4.61874
1.60780E+06 4.39464
1.61050E+06 3.97565
1.61310E+06 3.70869
1.61570E+06 3.39793
1.61630E+06 3.35585
1.61950E+06 3.13074
1.62600E+06 2.90683
1.63090E+06 2.75521
1.63210E+06 2.86351
1.63390E+06 2.92130
1.63620E+06 2.80570
1.63880E+06 2.58179
1.64150E+06 2.48068
1.65050E+06 2.35795
1.65080E+06 2.35585
1.66280E+06 2.27119
1.66510E+06 2.24210
1.67480E+06 2.11951
1.67750E+06 1.85951
1.67980E+06 1.72952
1.68100E+06 1.91726
1.68390E+06 2.47350
1.68540E+06 2.53195
1.68890E+06 2.66854
1.69380E+06 2.82738
1.69650E+06 2.87794
1.70110E+06 2.80572
1.70560E+06 2.78725
1.70640E+06 2.78398
1.71140E+06 2.98628
1.71640E+06 3.37629
1.71960E+06 3.59290
1.72070E+06 3.47023
1.72340E+06 3.41961
1.73570E+06 3.51354
1.73900E+06 3.51352
1.74150E+06 3.51353
1.74650E+06 3.37626
1.75640E+06 3.05780
1.75820E+06 3.05268
1.75982E+06 3.16592
1.76030E+06 3.19928
1.76250E+06 2.96677
1.76790E+06 2.67862
1.76980E+06 2.85050
1.77240E+06 2.60102
1.77370E+06 2.47626
1.78070E+06 2.42070
1.78340E+06 2.40545
1.78520E+06 2.46604
1.78700E+06 2.64304
1.78920E+06 2.55723
1.79130E+06 2.69394
1.79610E+06 2.76450
1.79830E+06 2.91618
1.79950E+06 3.10815
1.80070E+06 3.56341
1.80190E+06 3.96278
1.80280E+06 3.76083
1.80340E+06 3.29526
1.80400E+06 3.06279
1.80570E+06 3.01052
1.80860E+06 2.92125
1.82600E+06 2.57966
1.83590E+06 2.38527
1.84030E+06 2.34036
1.84830E+06 2.25886
1.86290E+06 2.03988
1.87930E+06 1.79384
1.88440E+06 1.74833
1.88960E+06 1.80390
1.89560E+06 1.94039
1.90140E+06 1.95054
1.90350E+06 2.28932
1.90690E+06 2.00106
1.91060E+06 1.93884
1.91170E+06 1.92025
1.91410E+06 2.04155
1.91840E+06 1.96065
1.92260E+06 1.94535
1.92810E+06 2.28926
1.93140E+06 2.63786
1.93240E+06 3.02226
1.93330E+06 3.54296
1.93360E+06 3.82126
1.93480E+06 3.51786
1.93600E+06 2.93136
1.93750E+06 2.71907
1.93930E+06 2.66847
1.94880E+06 2.80527
1.95300E+06 2.86571
1.95690E+06 3.16398
1.96150E+06 3.32572
1.96660E+06 3.30054
1.96940E+06 3.64932
1.97330E+06 3.21450
1.97380E+06 3.18196
1.97820E+06 2.89604
1.98820E+06 2.77975
1.99000E+06 2.77599
1.99000E+06 2.77599
1.99640E+06 2.76261
1.99790E+06 2.75951
2.00000E+06 2.77872
2.01170E+06 2.88576
2.01500E+06 2.91599
2.01820E+06 3.17298
2.02000E+06 3.29427
2.02500E+06 3.11514
2.02690E+06 3.04008
2.03010E+06 3.04456
2.03320E+06 3.04877
2.04140E+06 3.14120
2.04460E+06 3.22206
2.04730E+06 3.12955
2.05190E+06 3.16429
2.05550E+06 3.29138
2.06830E+06 3.33484
2.07970E+06 3.30883
2.08320E+06 3.33116
2.08420E+06 3.33771
2.08970E+06 3.46768
2.09650E+06 3.47921
2.10600E+06 3.60058
2.10920E+06 3.67873
2.11380E+06 3.59775
2.12240E+06 3.33178
2.12560E+06 3.10653
2.12870E+06 3.07710
2.13200E+06 3.04588
2.13650E+06 2.79449
2.13850E+06 2.80445
2.14290E+06 2.82626
2.14790E+06 2.95906
2.15040E+06 3.06026
2.15290E+06 3.16139
2.15660E+06 3.22793
2.16000E+06 3.25616
2.16110E+06 3.26543
2.16790E+06 3.13829
2.16920E+06 3.11163
2.17500E+06 2.99268
2.17790E+06 2.93321
2.18102E+06 2.93542
2.18400E+06 2.93754
2.19020E+06 2.94193
2.19610E+06 3.10076
2.20070E+06 3.58914
2.20250E+06 3.69028
2.20390E+06 3.57745
2.20930E+06 2.95079
2.21000E+06 2.93922
2.21430E+06 2.86929
2.21660E+06 2.83210
2.21930E+06 3.14119
2.22000E+06 3.22418
2.22120E+06 3.36645
2.22530E+06 2.99100
2.23250E+06 2.81469
2.23380E+06 2.80469
2.23850E+06 2.76852
2.24000E+06 2.80106
2.24210E+06 2.84649
2.24530E+06 3.14122
2.25120E+06 2.76851
2.25580E+06 2.81466
2.25980E+06 2.75237
2.26080E+06 2.73666
2.26530E+06 2.98233
2.26850E+06 3.06595
2.27080E+06 3.30589
2.27440E+06 3.12099
2.28000E+06 3.05007
2.28580E+06 2.97669
2.28900E+06 2.93607
2.29000E+06 2.93021
2.29530E+06 2.89851
2.31040E+06 2.87828
2.31350E+06 3.13255
2.31900E+06 2.88702
2.32000E+06 2.85550
2.32450E+06 2.71359
2.33000E+06 2.66262
2.33540E+06 2.61248
2.33670E+06 2.62456
2.34220E+06 2.67603
2.34630E+06 2.78580
2.36000E+06 2.80582
2.36220E+06 2.80899
2.37570E+06 2.92585
2.38000E+06 2.96316
2.38680E+06 3.02197
2.39880E+06 3.13040
2.40580E+06 3.29646
2.41000E+06 3.41792
2.41130E+06 3.45543
2.41530E+06 3.53491
2.41870E+06 3.45543
2.42270E+06 3.25681
2.42620E+06 3.37209
2.42670E+06 3.36960
2.43620E+06 3.31819
2.43870E+06 3.25678
2.44320E+06 3.32899
2.45410E+06 3.23511
2.45560E+06 3.40848
2.45960E+06 3.74794
2.46210E+06 3.52043
2.46660E+06 3.10874
2.47660E+06 3.00399
2.48950E+06 2.99763
2.49150E+06 2.99672
2.49800E+06 2.96135
2.50000E+06 2.95057
2.50350E+06 2.93173
2.51000E+06 2.96717
2.51540E+06 2.99667
2.52000E+06 3.28069
2.52090E+06 3.33623
2.52490E+06 3.75152
2.52690E+06 3.50597
2.52940E+06 3.37587
2.53000E+06 3.29793
2.53340E+06 2.85587
2.53810E+06 3.08352
2.53840E+06 3.09795
2.54230E+06 2.87764
2.54830E+06 2.63920
2.55040E+06 2.62848
2.56000E+06 2.57941
2.56030E+06 2.57782
2.56330E+06 2.99312
2.56580E+06 3.30374
2.56830E+06 3.65036
2.57020E+06 3.14836
2.57320E+06 2.65006
2.57970E+06 2.45864
2.58500E+06 2.40989
2.58520E+06 2.40812
2.59420E+06 2.54173
2.59970E+06 2.98585
2.60110E+06 2.72228
2.60610E+06 2.48032
2.60890E+06 2.46299
2.61000E+06 2.45597
2.61540E+06 2.42242
2.62060E+06 2.38996
2.63000E+06 2.38585
2.63700E+06 2.38279
2.65400E+06 2.72951
2.67190E+06 2.42995
2.67640E+06 2.53812
2.68000E+06 2.52827
2.68440E+06 2.51642
2.69730E+06 2.20222
2.69990E+06 2.36335
2.70330E+06 2.57425
2.71000E+06 2.67987
2.71430E+06 2.74764
2.71880E+06 2.69700
2.72000E+06 2.72999
2.72720E+06 2.92814
2.73170E+06 2.93896
2.74070E+06 2.69339
2.75020E+06 2.57058
2.75580E+06 2.54854
2.75583E+06 2.54842
2.76000E+06 2.53202
2.78500E+06 2.43340
2.79090E+06 2.49309
2.79750E+06 2.55979
2.80000E+06 2.58515
2.81180E+06 2.70457
2.81470E+06 2.71632
2.81990E+06 2.73665
2.82000E+06 2.73640
2.82370E+06 2.70836
2.82800E+06 2.67572
2.83000E+06 2.64232
2.84000E+06 2.47569
2.84100E+06 2.45897
2.84379E+06 2.52878
2.84590E+06 2.58178
2.86000E+06 2.47001
2.86050E+06 2.46619
2.88000E+06 2.50950
2.88330E+06 2.51677
2.89460E+06 2.43730
2.90680E+06 2.48790
2.90740E+06 2.49568
2.91270E+06 2.56414
2.92000E+06 2.65825
2.92470E+06 2.71899
2.94180E+06 2.22792
2.94370E+06 2.25474
2.95000E+06 2.34352
2.95230E+06 2.37588
2.97260E+06 2.43015
2.98030E+06 2.30961
2.98160E+06 2.28931
2.99460E+06 2.30643
3.00000E+06 2.31364
3.00350E+06 2.31820
3.02000E+06 2.11480
3.03280E+06 1.95698
3.04330E+06 1.94259
3.06450E+06 1.66814
3.06610E+06 1.65959
3.07000E+06 1.63880
3.07670E+06 1.60311
3.08340E+06 1.60940
3.09210E+06 1.61759
3.09697E+06 1.67739
3.09860E+06 1.69733
3.09970E+06 1.71076
3.10000E+06 1.71450
3.11240E+06 1.86671
3.11390E+06 1.87951
3.12000E+06 1.93158
3.14410E+06 2.13760
3.15380E+06 2.38038
3.15550E+06 2.42288
3.15750E+06 2.38517
3.16680E+06 2.20979
3.17660E+06 2.52025
3.18000E+06 2.55695
3.18230E+06 2.58182
3.18500E+06 2.50591
3.19450E+06 2.23869
3.19720E+06 2.21535
3.20150E+06 2.17826
3.20830E+06 2.11946
3.21340E+06 2.18764
3.21560E+06 2.21707
3.22450E+06 2.33619
3.23000E+06 2.32857
3.24320E+06 2.31015
3.25300E+06 2.29650
3.26190E+06 2.43369
3.26760E+06 2.43731
3.27000E+06 2.39624
3.27900E+06 2.24235
3.29230E+06 2.14072
3.29630E+06 2.11022
3.30170E+06 2.06898
3.31230E+06 2.01484
3.32000E+06 2.06829
3.32530E+06 2.10512
3.33260E+06 2.25773
3.33670E+06 2.34355
3.34720E+06 2.54933
3.36020E+06 2.48069
3.37160E+06 2.74431
3.37680E+06 2.73741
3.37970E+06 2.73348
3.38980E+06 2.46737
3.39110E+06 2.43304
3.39190E+06 2.41206
3.39330E+06 2.39549
3.39730E+06 2.34803
3.40000E+06 2.31615
3.40410E+06 2.26759
3.41630E+06 2.31818
3.44640E+06 2.16647
3.48370E+06 2.48791
3.49000E+06 2.46861
3.49430E+06 2.45543
3.49580E+06 2.45647
3.49710E+06 2.45764
3.50000E+06 2.45998
3.50600E+06 2.46473
3.51700E+06 2.47349
3.51964E+06 2.49966
3.53540E+06 2.65559
3.54520E+06 2.73934
3.55600E+06 2.75077
3.56860E+06 2.54402
3.57660E+06 2.41281
3.58850E+06 2.28282
3.60000E+06 2.31125
3.61700E+06 2.35351
3.63620E+06 2.40144
3.63660E+06 2.40672
3.63850E+06 2.43325
3.65030E+06 2.59767
3.66220E+06 2.38388
3.67740E+06 2.45609
3.68460E+06 2.57051
3.68690E+06 2.60704
3.69140E+06 2.67865
3.70550E+06 2.74502
3.71200E+06 2.49659
3.71720E+06 2.54053
3.73150E+06 2.66123
3.74380E+06 2.29070
3.74560E+06 2.23654
3.75000E+06 2.21820
3.75320E+06 2.20477
3.75480E+06 2.22646
3.75482E+06 2.22673
3.76200E+06 2.32370
3.76380E+06 2.34796
3.76730E+06 2.39541
3.77000E+06 2.37058
3.77410E+06 2.33299
3.78460E+06 2.23690
3.78470E+06 2.23678
3.78660E+06 2.23951
3.78960E+06 2.24383
3.79650E+06 2.25390
3.80070E+06 2.20723
3.80950E+06 2.10935
3.83880E+06 2.13528
3.84000E+06 2.09595
3.84150E+06 2.04662
3.84750E+06 1.84938
3.85000E+06 1.85285
3.85610E+06 1.86106
3.87130E+06 2.12377
3.88860E+06 1.75981
3.90000E+06 1.82420
3.90140E+06 1.83211
3.90600E+06 1.85819
3.90700E+06 1.86381
3.91460E+06 2.14991
3.93090E+06 1.99965
3.96340E+06 2.31169
3.98610E+06 2.27409
4.00000E+06 2.30298
4.00100E+06 2.30503
4.00560E+06 2.31456
4.00760E+06 2.28633
4.01540E+06 2.17591
4.02510E+06 2.25975
4.03560E+06 2.16142
4.03562E+06 2.16122
4.04000E+06 2.12031
4.05000E+06 2.02664
4.05020E+06 2.02480
4.05024E+06 2.02445
4.05660E+06 1.96500
4.06200E+06 1.95231
4.06520E+06 1.94466
4.08800E+06 2.36667
4.09770E+06 2.39275
4.10000E+06 2.36364
4.10400E+06 2.31344
4.10420E+06 2.31074
4.12520E+06 2.04645
4.15300E+06 1.69630
4.17360E+06 1.82050
4.18760E+06 2.04303
4.20000E+06 2.33934
4.20610E+06 2.48499
4.21260E+06 2.52835
4.23290E+06 2.22523
4.23640E+06 2.17298
4.25480E+06 2.22214
4.27220E+06 2.17010
4.28410E+06 2.35501
4.28730E+06 2.35885
4.29820E+06 2.37215
4.30000E+06 2.39175
4.31660E+06 2.57169
4.34260E+06 2.21051
4.35230E+06 2.19028
4.36100E+06 2.32609
4.37070E+06 2.22206
4.39570E+06 2.22211
4.42510E+06 2.01992
4.45690E+06 1.88994
4.48630E+06 1.87245
4.50000E+06 1.81999
4.53040E+06 1.70351
4.53530E+06 1.68471
4.57080E+06 2.02561
4.58300E+06 2.16430
4.59400E+06 2.14412
4.60000E+06 2.09371
4.60260E+06 2.07189
4.62440E+06 2.07439
4.62830E+06 2.07479
4.64060E+06 2.22210
4.66870E+06 2.11523
4.69810E+06 1.87832
4.70000E+06 1.87718
4.70790E+06 1.87248
4.72260E+06 1.97067
4.75000E+06 1.98072
4.75440E+06 1.98230
4.77770E+06 2.09498
4.80950E+06 2.08050
4.84780E+06 2.01584
4.85460E+06 2.00433
4.85860E+06 1.99761
4.86150E+06 1.99266
4.88300E+06 1.95615
4.95280E+06 1.91866
4.97110E+06 1.80901
4.97930E+06 1.79636
4.98000E+06 1.79520
5.00000E+06 1.76432
5.00290E+06 1.75981
5.01640E+06 1.82920
5.05680E+06 1.84651
5.07400E+06 1.93611
5.10460E+06 1.89849
5.11970E+06 1.91501
5.13000E+06 1.92622
5.13640E+06 1.93321
5.16090E+06 2.10938
5.17190E+06 2.08344
5.18290E+06 1.98521
5.20000E+06 2.04583
5.24410E+06 2.20206
5.25000E+06 2.20380
5.27000E+06 2.21021
5.27110E+06 2.21048
5.29070E+06 1.96206
5.30000E+06 1.93733
5.31020E+06 1.91009
5.32980E+06 2.02284
5.34940E+06 1.98829
5.34980E+06 1.99013
5.35000E+06 1.99125
5.36290E+06 2.06034
5.39800E+06 2.07682
5.39960E+06 2.07798
5.40000E+06 2.07480
5.40470E+06 2.04143
5.42160E+06 1.92163
5.44370E+06 1.88120
5.45960E+06 2.24515
5.46570E+06 2.34919
5.48410E+06 1.95920
5.49630E+06 1.97937
5.50000E+06 1.92930
5.51380E+06 1.74250
5.52890E+06 1.84071
5.54240E+06 2.02558
5.56420E+06 1.98810
5.57230E+06 2.03542
5.58600E+06 2.11524
5.60000E+06 2.13116
5.60620E+06 2.13831
5.61600E+06 2.07810
5.61605E+06 2.07780
5.63000E+06 1.99199
5.63300E+06 1.97372
5.65990E+06 1.90430
5.72160E+06 1.88350
5.73720E+06 1.87830
5.75000E+06 1.87550
5.77000E+06 1.87121
5.77260E+06 1.87060
5.77263E+06 1.87059
5.80000E+06 1.86481
5.85000E+06 1.85411
5.88000E+06 1.84760
5.90500E+06 1.84211
5.90560E+06 1.84209
5.90810E+06 1.84158
5.91280E+06 1.84061
5.93000E+06 1.83680
5.95210E+06 1.83208
5.95500E+06 1.84410
5.96890E+06 1.90141
5.98740E+06 1.74250
6.00000E+06 1.73581
6.00920E+06 1.73093
6.01270E+06 1.74840
6.01272E+06 1.74850
6.02500E+06 1.81010
6.04780E+06 1.92452
6.05000E+06 1.92574
6.06460E+06 1.93319
6.07810E+06 1.75120
6.10000E+06 1.82292
6.12500E+06 1.90478
6.12840E+06 1.91590
6.14020E+06 2.11230
6.15000E+06 2.13525
6.15870E+06 2.15574
6.17500E+06 2.10448
6.17710E+06 2.09788
6.20000E+06 1.92440
6.20570E+06 1.88119
6.21630E+06 1.92292
6.22920E+06 1.97359
6.25000E+06 1.98041
6.26450E+06 1.98521
6.30000E+06 1.86299
6.30480E+06 1.84650
6.33000E+06 1.95379
6.33330E+06 1.96789
6.34520E+06 1.87839
6.35000E+06 1.84231
6.36000E+06 1.76659
6.36020E+06 1.76560
6.37000E+06 1.73571
6.38000E+06 1.70532
6.38200E+06 1.69920
6.40000E+06 1.69920
6.40550E+06 1.69919
6.41280E+06 1.75540
6.41820E+06 1.79699
6.41900E+06 1.80321
6.42510E+06 1.80402
6.42690E+06 1.80422
6.43000E+06 1.80460
6.44200E+06 1.80611
6.44910E+06 1.80701
6.46430E+06 1.80899
6.48780E+06 1.71650
6.50000E+06 1.79760
6.51300E+06 1.88410
6.53000E+06 1.96880
6.54490E+06 2.04315
6.54510E+06 2.04305
6.56510E+06 2.05738
6.58000E+06 1.95280
6.59020E+06 1.88121
6.60000E+06 1.87331
6.62000E+06 1.85720
6.65000E+06 1.83310
6.66920E+06 1.81761
6.71790E+06 1.67610
6.72500E+06 1.67771
6.76990E+06 1.68760
6.78000E+06 1.74760
6.79180E+06 1.81759
6.80000E+06 1.83920
6.82000E+06 1.89201
6.82030E+06 1.89269
6.82500E+06 1.87550
6.83370E+06 1.84360
6.85000E+06 1.70490
6.86730E+06 1.55759
6.87500E+06 1.59940
6.89920E+06 1.73074
6.90000E+06 1.72990
6.92500E+06 1.70018
6.93000E+06 1.69430
6.93340E+06 1.69021
6.94290E+06 1.67889
6.95000E+06 1.68019
6.96000E+06 1.68209
6.97500E+06 1.68478
6.98990E+06 1.68756
7.00000E+06 1.71420
7.00110E+06 1.71719
7.00980E+06 1.74021
7.01000E+06 1.74073
7.01830E+06 1.76270
7.02500E+06 1.76210
7.05000E+06 1.76000
7.05020E+06 1.75980
7.07500E+06 1.60879
7.07520E+06 1.60669
7.10000E+06 1.79601
7.10020E+06 1.79738
7.11610E+06 1.82339
7.12500E+06 1.73490
7.14340E+06 1.55181
7.15000E+06 1.57940
7.16620E+06 1.64719
7.17500E+06 1.61230
7.18440E+06 1.57491
7.20000E+06 1.72912
7.20720E+06 1.80032
7.22080E+06 1.74540
7.22500E+06 1.72622
7.23000E+06 1.70336
7.24360E+06 1.64138
7.25000E+06 1.67811
7.26630E+06 1.77139
7.27500E+06 1.76280
7.30000E+06 1.73819
7.32500E+06 1.71348
7.35000E+06 1.68887
7.37500E+06 1.66432
7.40000E+06 1.63966
7.41870E+06 1.62119
7.42200E+06 1.62907
7.42500E+06 1.63630
7.44000E+06 1.67244
7.45000E+06 1.69637
7.47000E+06 1.74456
7.47500E+06 1.75647
7.48240E+06 1.77430
7.50000E+06 1.80184
7.51200E+06 1.82051
7.52500E+06 1.80197
7.55000E+06 1.76652
7.56890E+06 1.73961
7.57500E+06 1.74791
7.59910E+06 1.78097
7.60000E+06 1.78207
7.62500E+06 1.81627
7.62810E+06 1.82046
7.65000E+06 1.82046
7.65760E+06 1.82048
7.67500E+06 1.78739
7.70000E+06 1.73981
7.71680E+06 1.70779
7.72500E+06 1.70259
7.75000E+06 1.68669
7.75300E+06 1.68483
7.77500E+06 1.67098
7.77590E+06 1.67027
7.79090E+06 1.63985
7.80000E+06 1.62145
7.81010E+06 1.60092
7.82500E+06 1.65768
7.85000E+06 1.75292
7.86700E+06 1.81761
7.87500E+06 1.80000
7.90000E+06 1.74490
7.90110E+06 1.74249
7.92500E+06 1.71449
7.95000E+06 1.68520
7.96000E+06 1.67339
7.97500E+06 1.65585
7.98980E+06 1.63849
8.00000E+06 1.67406
8.02000E+06 1.74378
8.02500E+06 1.76122
8.02620E+06 1.76558
8.05000E+06 1.77289
8.07500E+06 1.78044
8.09220E+06 1.78579
8.10000E+06 1.77020
8.12500E+06 1.72035
8.13180E+06 1.70679
8.14860E+06 1.67329
8.15000E+06 1.67057
8.17500E+06 1.62069
8.18780E+06 1.59520
8.20000E+06 1.58630
8.21960E+06 1.57199
8.22500E+06 1.58439
8.23000E+06 1.59578
8.25000E+06 1.64159
8.25370E+06 1.65011
8.27000E+06 1.61768
8.27500E+06 1.60783
8.30000E+06 1.55798
8.32200E+06 1.51430
8.32500E+06 1.52604
8.35000E+06 1.62343
8.35610E+06 1.64724
8.37500E+06 1.64844
8.40000E+06 1.64995
8.42000E+06 1.65112
8.42500E+06 1.65143
8.45000E+06 1.65299
8.47500E+06 1.65446
8.50000E+06 1.65612
8.52000E+06 1.65727
8.52500E+06 1.65759
8.55000E+06 1.65920
8.57500E+06 1.66070
8.60000E+06 1.66220
8.62500E+06 1.66378
8.65000E+06 1.66526
8.67500E+06 1.66690
8.68370E+06 1.66741
8.70000E+06 1.66902
8.72500E+06 1.67140
8.75000E+06 1.67378
8.77500E+06 1.67626
8.79000E+06 1.67778
8.80000E+06 1.67874
8.82000E+06 1.68069
8.82500E+06 1.68124
8.83160E+06 1.68185
8.85000E+06 1.66225
8.86000E+06 1.65157
8.87500E+06 1.63563
8.90000E+06 1.60906
8.90220E+06 1.60667
8.91000E+06 1.60413
8.92500E+06 1.59901
8.95000E+06 1.59057
8.97500E+06 1.58225
8.97950E+06 1.58066
8.98000E+06 1.58076
9.00000E+06 1.58652
9.01000E+06 1.58934
9.03470E+06 1.59630
9.05000E+06 1.60061
9.07000E+06 1.60624
9.08200E+06 1.60963
9.12500E+06 1.59325
9.15000E+06 1.58366
9.20000E+06 1.56468
9.23080E+06 1.55290
9.26400E+06 1.54031
9.35000E+06 1.60023
9.43390E+06 1.65872
9.49730E+06 1.65587
9.50000E+06 1.65578
9.58000E+06 1.65220
9.59166E+06 1.65167
9.60000E+06 1.65129
9.62500E+06 1.65022
9.65000E+06 1.64913
9.75000E+06 1.64465
9.76550E+06 1.64398
9.85000E+06 1.64029
9.90000E+06 1.63811
9.95000E+06 1.63592
9.95570E+06 1.63564
9.98000E+06 1.63235
1.00000E+07 1.62965
1.00500E+07 1.62286
1.01000E+07 1.61617
1.01500E+07 1.60939
1.02350E+07 1.59802
1.02500E+07 1.59973
1.04000E+07 1.61668
1.05000E+07 1.62787
1.07500E+07 1.65620
1.09260E+07 1.67613
1.10000E+07 1.67635
1.15000E+07 1.67765
1.17500E+07 1.67820
1.19000E+07 1.67855
1.20000E+07 1.67893
1.20190E+07 1.67891
1.20300E+07 1.67911
1.21000E+07 1.68039
1.22000E+07 1.68216
1.23000E+07 1.68403
1.25000E+07 1.68756
1.26000E+07 1.68943
1.29500E+07 1.69570
1.29587E+07 1.69556
1.30000E+07 1.69650
1.32000E+07 1.70010
1.32400E+07 1.70090
1.33000E+07 1.70190
1.34600E+07 1.70481
1.37900E+07 1.71080
1.39480E+07 1.71361
1.40000E+07 1.71510
1.40200E+07 1.71565
1.41190E+07 1.71839
1.44000E+07 1.72640
1.47100E+07 1.73520
1.50000E+07 1.74340
1.56830E+07 1.76270
1.60000E+07 1.76909
1.70000E+07 1.78931
1.70400E+07 1.79011
1.74950E+07 1.79930
1.80000E+07 1.80951
1.84010E+07 1.81760
1.90000E+07 1.83170
1.99470E+07 1.85402
2.00000E+07 1.85522
