S-36(n,tot) ENDFB-8.0
Energy(eV) XS(b)
1.00000E-05 26.4619
1.03125E-05 26.0609
1.06250E-05 25.6779
1.09375E-05 25.3114
1.12500E-05 24.9604
1.15625E-05 24.6237
1.18750E-05 24.3004
1.21875E-05 23.9897
1.25000E-05 23.6908
1.28125E-05 23.4029
1.31250E-05 23.1253
1.34375E-05 22.8576
1.37500E-05 22.5990
1.43750E-05 22.1076
1.50000E-05 21.6472
1.56250E-05 21.2149
1.62500E-05 20.8079
1.68750E-05 20.4238
1.75000E-05 20.0605
1.81250E-05 19.7163
1.87500E-05 19.3895
1.93750E-05 19.0787
2.00000E-05 18.7827
2.09375E-05 18.3639
2.18750E-05 17.9725
2.28125E-05 17.6056
2.37500E-05 17.2607
2.46875E-05 16.9358
2.56250E-05 16.6290
2.65625E-05 16.3387
2.75000E-05 16.0635
2.84375E-05 15.8021
2.93750E-05 15.5533
3.03125E-05 15.3164
3.12500E-05 15.0902
3.21875E-05 14.8740
3.31250E-05 14.6672
3.40625E-05 14.4691
3.50000E-05 14.2790
3.59375E-05 14.0965
3.68750E-05 13.9210
3.78125E-05 13.7522
3.87500E-05 13.5896
3.96875E-05 13.4329
4.06250E-05 13.2816
4.25000E-05 12.9944
4.43750E-05 12.7259
4.62500E-05 12.4740
4.81250E-05 12.2371
5.00000E-05 12.0138
5.15625E-05 11.8373
5.31250E-05 11.6687
5.46875E-05 11.5074
5.62500E-05 11.3531
5.78125E-05 11.2051
5.93750E-05 11.0630
6.09375E-05 10.9266
6.25000E-05 10.7954
6.40625E-05 10.6690
6.56250E-05 10.5473
6.71875E-05 10.4300
6.87500E-05 10.3167
7.18750E-05 10.1015
7.50000E-05 9.90013
7.81250E-05 9.71119
8.12500E-05 9.53347
8.43750E-05 9.36591
8.75000E-05 9.20759
9.06250E-05 9.05770
9.37500E-05 8.91554
9.68750E-05 8.78047
0.000100000 8.65192
0.000103125 8.52941
0.000106250 8.41247
0.000109375 8.30071
0.000112500 8.19376
0.000115625 8.09130
0.000118750 7.99302
0.000121875 7.89864
0.000125000 7.80794
0.000128125 7.72067
0.000131250 7.63663
0.000137500 7.47750
0.000143750 7.32920
0.000150000 7.19058
0.000156250 7.06065
0.000162500 6.93857
0.000168750 6.82358
0.000175000 6.71506
0.000181250 6.61242
0.000187500 6.51518
0.000193750 6.42288
0.000200000 6.33513
0.000209375 6.21129
0.000218750 6.09588
0.000228125 5.98801
0.000237500 5.88691
0.000246875 5.79194
0.000256250 5.70252
0.000265625 5.61814
0.000275000 5.53836
0.000284375 5.46281
0.000293750 5.39112
0.000303125 5.32300
0.000312500 5.25818
0.000321875 5.19639
0.000331250 5.13744
0.000340625 5.08110
0.000350000 5.02721
0.000359375 4.97560
0.000368750 4.92612
0.000378125 4.87864
0.000387500 4.83303
0.000406250 4.74697
0.000425000 4.66714
0.000443750 4.59287
0.000462500 4.52357
0.000481250 4.45873
0.000500000 4.39792
0.000515625 4.35005
0.000531250 4.30452
0.000546875 4.26116
0.000562500 4.21981
0.000578125 4.18032
0.000593750 4.14258
0.000609375 4.10646
0.000625000 4.07186
0.000640625 4.03868
0.000656250 4.00684
0.000687500 3.94682
0.000718750 3.89125
0.000750000 3.83962
0.000781250 3.79153
0.000812500 3.74661
0.000843750 3.70454
0.000875000 3.66507
0.000906250 3.62795
0.000937500 3.59298
0.000968750 3.55996
0.00100000 3.52873
0.00103125 3.49916
0.00106250 3.47110
0.00109375 3.44445
0.00112500 3.41909
0.00115625 3.39494
0.00118750 3.37190
0.00121875 3.34990
0.00125000 3.32888
0.00131250 3.28949
0.00137500 3.25327
0.00143750 3.21986
0.00150000 3.18893
0.00156250 3.16021
0.00162500 3.13346
0.00168750 3.10849
0.00175000 3.08512
0.00181250 3.06320
0.00187500 3.04258
0.00193750 3.02317
0.00200000 3.00484
0.00209375 2.97920
0.00218750 2.95554
0.00228125 2.93364
0.00237500 2.91330
0.00246875 2.89435
0.00256250 2.87665
0.00265625 2.86007
0.00275000 2.84452
0.00284375 2.82989
0.00293750 2.81610
0.00303125 2.80307
0.00312500 2.79075
0.00321875 2.77907
0.00331250 2.76799
0.00340625 2.75745
0.00350000 2.74742
0.00359375 2.73786
0.00368750 2.72873
0.00387500 2.71165
0.00406250 2.69599
0.00425000 2.68155
0.00443750 2.66820
0.00462500 2.65581
0.00481250 2.64428
0.00500000 2.63351
0.00515625 2.62506
0.00531250 2.61705
0.00546875 2.60945
0.00562500 2.60221
0.00578125 2.59532
0.00593750 2.58874
0.00625000 2.57645
0.00656250 2.56518
0.00687500 2.55480
0.00718750 2.54521
0.00750000 2.53631
0.00781250 2.52803
0.00812500 2.52029
0.00843750 2.51305
0.00875000 2.50625
0.00906250 2.49986
0.00937500 2.49383
0.00968750 2.48813
0.0100000 2.48273
0.0103125 2.47761
0.0106250 2.47275
0.0109375 2.46812
0.0112500 2.46371
0.0115625 2.45951
0.0118750 2.45548
0.0125000 2.44795
0.0131250 2.44102
0.0137500 2.43462
0.0143750 2.42869
0.0150000 2.42317
0.0156250 2.41801
0.0162500 2.41319
0.0168750 2.40867
0.0175000 2.40442
0.0181250 2.40040
0.0187500 2.39662
0.0193750 2.39303
0.0200000 2.38963
0.0206625 2.38621
0.0213250 2.38297
0.0219875 2.37989
0.0226500 2.37696
0.0233125 2.37416
0.0239750 2.37150
0.0246375 2.36895
0.0253000 2.36651
0.0261684 2.36348
0.0270367 2.36060
0.0279051 2.35787
0.0287734 2.35527
0.0296418 2.35280
0.0305102 2.35044
0.0313785 2.34819
0.0322469 2.34604
0.0339836 2.34201
0.0357203 2.33829
0.0374570 2.33484
0.0391938 2.33164
0.0405445 2.32931
0.0418953 2.32709
0.0432461 2.32498
0.0445969 2.32297
0.0459477 2.32105
0.0472984 2.31922
0.0486492 2.31747
0.0500000 2.31580
0.0515625 2.31395
0.0531250 2.31218
0.0546875 2.31049
0.0562500 2.30887
0.0593750 2.30584
0.0625000 2.30304
0.0656250 2.30044
0.0687500 2.29803
0.0718750 2.29579
0.0750000 2.29368
0.0781250 2.29171
0.0812500 2.28985
0.0843750 2.28810
0.0875000 2.28644
0.0906250 2.28487
0.0937500 2.28338
0.0968750 2.28196
0.100000 2.28062
0.103125 2.27933
0.106250 2.27810
0.109375 2.27692
0.112500 2.27580
0.118750 2.27368
0.125000 2.27172
0.131250 2.26990
0.137500 2.26820
0.143750 2.26662
0.150000 2.26514
0.156250 2.26374
0.162500 2.26243
0.168750 2.26118
0.175000 2.26001
0.181250 2.25889
0.187500 2.25783
0.193750 2.25682
0.200000 2.25586
0.209375 2.25450
0.218750 2.25322
0.228125 2.25202
0.237500 2.25089
0.246875 2.24983
0.256250 2.24882
0.265625 2.24786
0.275000 2.24696
0.284375 2.24609
0.293750 2.24527
0.303125 2.24448
0.312500 2.24373
0.321875 2.24301
0.331250 2.24232
0.340625 2.24166
0.350000 2.24103
0.368750 2.23983
0.387500 2.23871
0.406250 2.23767
0.425000 2.23670
0.443750 2.23579
0.462500 2.23493
0.500000 2.23335
0.562500 2.23107
0.625000 2.22913
0.687500 2.22744
0.750000 2.22596
0.812500 2.22465
0.875000 2.22348
0.937500 2.22242
1.00000 2.22145
1.12500 2.21975
1.25000 2.21831
1.37500 2.21705
1.50000 2.21594
1.62500 2.21496
1.75000 2.21409
1.87500 2.21329
2.00000 2.21257
2.18750 2.21159
2.37500 2.21073
2.56250 2.20996
2.75000 2.20926
2.93750 2.20863
3.12500 2.20806
3.50000 2.20703
3.87500 2.20616
4.25000 2.20539
4.62500 2.20471
5.00000 2.20411
5.62500 2.20323
6.25000 2.20248
6.87500 2.20183
7.50000 2.20125
8.12500 2.20074
8.75000 2.20028
9.37500 2.19987
10.0000 2.19949
11.2500 2.19883
12.5000 2.19826
13.7500 2.19776
15.0000 2.19732
16.2500 2.19694
17.5000 2.19659
18.7500 2.19627
20.0000 2.19599
21.8750 2.19560
23.7500 2.19525
25.6250 2.19495
27.5000 2.19467
29.3750 2.19442
31.2500 2.19419
35.0000 2.19378
38.7500 2.19342
42.5000 2.19312
46.2500 2.19285
50.0000 2.19260
56.2500 2.19225
62.5000 2.19195
68.7500 2.19168
75.0000 2.19145
81.2500 2.19125
87.5000 2.19106
93.7500 2.19089
100.000 2.19074
112.500 2.19047
125.000 2.19024
137.500 2.19004
150.000 2.18986
162.500 2.18971
175.000 2.18957
187.500 2.18944
200.000 2.18932
218.750 2.18916
237.500 2.18902
256.250 2.18890
275.000 2.18879
293.750 2.18868
312.500 2.18859
350.000 2.18842
387.500 2.18828
425.000 2.18816
462.500 2.18805
500.000 2.18795
562.500 2.18780
625.000 2.18768
687.500 2.18757
750.000 2.18748
812.500 2.18740
875.000 2.18732
937.500 2.18725
1000.00 2.18719
1125.00 2.18708
1250.00 2.18699
1375.00 2.18690
1500.00 2.18683
1625.00 2.18677
1750.00 2.18671
1875.00 2.18666
2000.00 2.18661
2187.50 2.18655
2375.00 2.18649
2562.50 2.18644
2750.00 2.18639
2937.50 2.18635
3125.00 2.18631
3500.00 2.18624
3875.00 2.18619
4250.00 2.18614
4625.00 2.18609
5000.00 2.18605
5625.00 2.18599
6250.00 2.18594
6875.00 2.18590
7500.00 2.18586
8125.00 2.18582
8750.00 2.18579
9375.00 2.18577
10000.0 2.18574
10625.0 2.18572
11250.0 2.18569
12500.0 2.18565
13750.0 2.18562
15000.0 2.18559
16250.0 2.18556
17500.0 2.18553
18750.0 2.18551
20000.0 2.18549
21875.0 2.18546
23750.0 2.18544
25625.0 2.18542
27500.0 2.18540
31250.0 2.18537
35000.0 2.18534
38750.0 2.18531
42500.0 2.18529
46250.0 2.18527
50000.0 2.18526
56250.0 2.18523
62500.0 2.18521
68750.0 2.18519
75000.0 2.18518
81250.0 2.18516
87500.0 2.18515
100000 2.18513
109766 2.18511
119531 2.18510
139063 2.18508
158594 2.18506
178125 2.18505
200000 2.18503
225000 2.18502
256250 2.18500
287500 2.18499
318750 2.18498
350000 2.18497
412500 2.18496
475000 2.18494
500000 2.18494
600000 2.18493
700000 2.20432
800000 2.23631
850000 2.25715
900000 2.27699
950000 2.30076
1.00000E+06 2.32354
1.12500E+06 2.39838
1.25000E+06 2.46737
1.50000E+06 2.59148
1.75000E+06 2.72551
2.00000E+06 2.84721
2.25000E+06 2.93457
2.50000E+06 3.01499
2.75000E+06 3.08963
3.00000E+06 3.15939
3.19165E+06 3.18046
3.38329E+06 3.20043
3.38329E+06 3.20043
3.38747E+06 3.20062
3.39165E+06 3.20083
3.39582E+06 3.20106
3.40000E+06 3.20129
3.41992E+06 3.20217
3.43984E+06 3.20335
3.44736E+06 3.20325
3.45488E+06 3.20315
3.46992E+06 3.20295
3.50000E+06 3.20260
3.53125E+06 3.20207
3.56250E+06 3.20158
3.62500E+06 3.20075
3.68750E+06 3.20008
3.75000E+06 3.19957
3.81250E+06 3.19863
3.87500E+06 3.19786
4.00000E+06 3.19674
4.06494E+06 3.19121
4.25000E+06 3.17597
4.30956E+06 3.17121
4.32087E+06 3.16976
4.33217E+06 3.16831
4.35478E+06 3.16547
4.37739E+06 3.16267
4.40000E+06 3.15993
4.46246E+06 3.15192
4.52492E+06 3.14430
4.58738E+06 3.13703
4.64984E+06 3.13011
4.66492E+06 3.12799
4.68000E+06 3.12591
4.70330E+06 3.12267
4.71539E+06 3.12072
4.72748E+06 3.11878
4.75165E+06 3.11497
4.80000E+06 3.10758
4.85000E+06 3.09956
4.90000E+06 3.09188
5.00000E+06 3.07752
5.14021E+06 3.05428
5.14022E+06 3.05427
5.15475E+06 3.05120
5.16928E+06 3.04816
5.19834E+06 3.04214
5.25646E+06 3.03042
5.31457E+06 3.01908
5.37269E+06 3.00812
5.43081E+06 2.99668
5.48893E+06 2.98562
5.60516E+06 2.96458
5.72140E+06 2.94331
5.83763E+06 2.92340
5.90000E+06 2.91255
5.91882E+06 2.90935
6.00000E+06 2.89593
6.07011E+06 2.88091
6.18635E+06 2.85544
6.30258E+06 2.83140
6.41882E+06 2.80869
6.53505E+06 2.78723
6.65129E+06 2.76429
6.76753E+06 2.74261
6.88376E+06 2.72212
7.00000E+06 2.70274
7.25000E+06 2.65222
7.50000E+06 2.60640
7.75000E+06 2.56081
8.00000E+06 2.51940
8.15653E+06 2.49003
8.31306E+06 2.46208
8.62611E+06 2.41011
8.81306E+06 2.37953
9.00000E+06 2.35066
9.24307E+06 2.31098
9.25223E+06 2.30951
9.40000E+06 2.28625
9.70000E+06 2.24030
9.85000E+06 2.21857
9.90000E+06 2.21151
1.00000E+07 2.19763
1.01694E+07 2.17351
1.02000E+07 2.16922
1.03000E+07 2.15365
1.04000E+07 2.13883
1.05000E+07 2.12472
1.06000E+07 2.11131
1.07000E+07 2.09858
1.08000E+07 2.08650
1.09000E+07 2.07506
1.10000E+07 2.06423
1.10625E+07 2.05672
1.11250E+07 2.04932
1.11875E+07 2.04202
1.12482E+07 2.03503
1.12500E+07 2.03482
1.13125E+07 2.02773
1.13750E+07 2.02073
1.14375E+07 2.01383
1.15000E+07 2.00703
1.15625E+07 2.00033
1.16250E+07 1.99372
1.16875E+07 1.98720
1.17500E+07 1.98077
1.17859E+07 1.97713
1.18125E+07 1.97444
1.18750E+07 1.96820
1.19375E+07 1.96204
1.20000E+07 1.95598
1.20625E+07 1.95043
1.21250E+07 1.94496
1.21875E+07 1.93957
1.22500E+07 1.93426
1.23125E+07 1.92903
1.23750E+07 1.92387
1.24375E+07 1.91879
1.25000E+07 1.91379
1.25625E+07 1.90885
1.26250E+07 1.90399
1.26875E+07 1.89921
1.27500E+07 1.89449
1.28125E+07 1.88985
1.28750E+07 1.88527
1.29375E+07 1.88077
1.30000E+07 1.87633
1.31019E+07 1.87069
1.32038E+07 1.86524
1.33057E+07 1.85997
1.34076E+07 1.85488
1.34077E+07 1.85488
1.34817E+07 1.85084
1.35558E+07 1.84689
1.36298E+07 1.84305
1.37038E+07 1.83930
1.37779E+07 1.83565
1.38519E+07 1.83209
1.39260E+07 1.82863
1.40000E+07 1.82525
1.40625E+07 1.82312
1.41250E+07 1.82104
1.41875E+07 1.81901
1.42500E+07 1.81704
1.43125E+07 1.81512
1.43750E+07 1.81326
1.44375E+07 1.81144
1.45000E+07 1.80968
1.45625E+07 1.80833
1.46250E+07 1.80702
1.46875E+07 1.80575
1.47500E+07 1.80453
1.48125E+07 1.80335
1.48750E+07 1.80222
1.49375E+07 1.80112
1.50000E+07 1.80007
1.50625E+07 1.79978
1.51250E+07 1.79950
1.51875E+07 1.79923
1.52500E+07 1.79896
1.53125E+07 1.79869
1.53750E+07 1.79843
1.54375E+07 1.79817
1.55000E+07 1.79791
1.55625E+07 1.79767
1.56250E+07 1.79742
1.56875E+07 1.79718
1.57500E+07 1.79694
1.58125E+07 1.79671
1.58610E+07 1.79653
1.58750E+07 1.79648
1.59375E+07 1.79626
1.60000E+07 1.79604
1.61250E+07 1.79754
1.62500E+07 1.79903
1.63750E+07 1.80050
1.65000E+07 1.80197
1.66250E+07 1.80341
1.67500E+07 1.80485
1.68750E+07 1.80627
1.70000E+07 1.80768
1.71250E+07 1.81046
1.72500E+07 1.81322
1.73750E+07 1.81597
1.75000E+07 1.81871
1.76250E+07 1.82142
1.77500E+07 1.82413
1.78750E+07 1.82682
1.80000E+07 1.82949
1.81250E+07 1.83303
1.82500E+07 1.83655
1.83750E+07 1.84006
1.85000E+07 1.84354
1.86250E+07 1.84701
1.87500E+07 1.85046
1.88750E+07 1.85389
1.90000E+07 1.85731
1.91250E+07 1.86122
1.92500E+07 1.86512
1.93750E+07 1.86901
1.95000E+07 1.87288
1.96250E+07 1.87674
1.97500E+07 1.88058
1.98750E+07 1.88441
2.00000E+07 1.88823
