Ga-69(n,g) ENDFB-8.0
Energy(eV) XS(b)
1.00000E-05 87.0177
1.03125E-05 85.6891
1.06250E-05 84.4196
1.09375E-05 83.2048
1.12500E-05 82.0411
1.15625E-05 80.9248
1.18750E-05 79.8529
1.21875E-05 78.8225
1.25000E-05 77.8310
1.28125E-05 76.8760
1.31250E-05 75.9553
1.34375E-05 75.0669
1.37500E-05 74.2089
1.43750E-05 72.5778
1.50000E-05 71.0496
1.56250E-05 69.6141
1.62500E-05 68.2623
1.68750E-05 66.9862
1.75000E-05 65.7792
1.81250E-05 64.6351
1.87500E-05 63.5487
1.93750E-05 62.5154
2.00000E-05 61.5308
2.09375E-05 60.1375
2.18750E-05 58.8347
2.28125E-05 57.6131
2.37500E-05 56.4645
2.46875E-05 55.3820
2.56250E-05 54.3595
2.65625E-05 53.3916
2.75000E-05 52.4736
2.84375E-05 51.6014
2.93750E-05 50.7713
3.03125E-05 49.9801
3.12500E-05 49.2246
3.21875E-05 48.5025
3.31250E-05 47.8112
3.40625E-05 47.1487
3.50000E-05 46.5129
3.59375E-05 45.9022
3.68750E-05 45.3150
3.78125E-05 44.7497
3.87500E-05 44.2050
3.96875E-05 43.6798
4.06250E-05 43.1729
4.25000E-05 42.2098
4.43750E-05 41.3084
4.62500E-05 40.4624
4.81250E-05 39.6663
5.00000E-05 38.9155
5.15625E-05 38.3213
5.31250E-05 37.7536
5.46875E-05 37.2103
5.62500E-05 36.6899
5.78125E-05 36.1907
5.93750E-05 35.7113
6.09375E-05 35.2505
6.25000E-05 34.8071
6.40625E-05 34.3800
6.56250E-05 33.9682
6.71875E-05 33.5709
6.87500E-05 33.1873
7.18750E-05 32.4578
7.50000E-05 31.7744
7.81250E-05 31.1324
8.12500E-05 30.5278
8.43750E-05 29.9572
8.75000E-05 29.4174
9.06250E-05 28.9057
9.37500E-05 28.4199
9.68750E-05 27.9577
0.000100000 27.5174
0.000103125 27.0973
0.000106250 26.6958
0.000109375 26.3117
0.000112500 25.9437
0.000115625 25.5907
0.000118750 25.2517
0.000121875 24.9259
0.000125000 24.6123
0.000128125 24.3103
0.000131250 24.0192
0.000134375 23.7382
0.000137500 23.4669
0.000143750 22.9511
0.000150000 22.4679
0.000156250 22.0139
0.000162500 21.5864
0.000168750 21.1829
0.000175000 20.8012
0.000181250 20.4394
0.000187500 20.0959
0.000193750 19.7691
0.000200000 19.4578
0.000209375 19.0172
0.000218750 18.6052
0.000228125 18.2189
0.000237500 17.8557
0.000246875 17.5134
0.000256250 17.1900
0.000265625 16.8839
0.000275000 16.5936
0.000284375 16.3178
0.000293750 16.0553
0.000303125 15.8051
0.000312500 15.5662
0.000321875 15.3379
0.000331250 15.1193
0.000340625 14.9097
0.000350000 14.7087
0.000359375 14.5156
0.000368750 14.3299
0.000378125 14.1511
0.000387500 13.9789
0.000396875 13.8128
0.000406250 13.6525
0.000425000 13.3479
0.000443750 13.0629
0.000462500 12.7954
0.000481250 12.5436
0.000500000 12.3062
0.000515625 12.1183
0.000531250 11.9388
0.000546875 11.7670
0.000562500 11.6024
0.000578125 11.4445
0.000593750 11.2929
0.000609375 11.1472
0.000625000 11.0070
0.000640625 10.8719
0.000656250 10.7417
0.000671875 10.6161
0.000687500 10.4948
0.000718750 10.2641
0.000750000 10.0480
0.000781250 9.84496
0.000812500 9.65378
0.000843750 9.47332
0.000875000 9.30262
0.000906250 9.14083
0.000937500 8.98719
0.000968750 8.84105
0.00100000 8.70181
0.00103125 8.56895
0.00106250 8.44200
0.00109375 8.32053
0.00112500 8.20415
0.00115625 8.09252
0.00118750 7.98534
0.00121875 7.88230
0.00125000 7.78314
0.00128125 7.68764
0.00131250 7.59557
0.00134375 7.50673
0.00137500 7.42094
0.00143750 7.25782
0.00150000 7.10501
0.00156250 6.96146
0.00162500 6.82627
0.00168750 6.69867
0.00175000 6.57796
0.00181250 6.46355
0.00187500 6.35492
0.00193750 6.25158
0.00200000 6.15312
0.00209375 6.01379
0.00218750 5.88351
0.00228125 5.76135
0.00237500 5.64649
0.00246875 5.53824
0.00256250 5.43599
0.00265625 5.33919
0.00275000 5.24740
0.00284375 5.16017
0.00293750 5.07716
0.00303125 4.99803
0.00312500 4.92249
0.00321875 4.85027
0.00331250 4.78115
0.00340625 4.71489
0.00350000 4.65132
0.00359375 4.59025
0.00368750 4.53152
0.00378125 4.47499
0.00387500 4.42053
0.00396875 4.36800
0.00406250 4.31731
0.00425000 4.22100
0.00443750 4.13086
0.00462500 4.04627
0.00481250 3.96666
0.00500000 3.89158
0.00515625 3.83216
0.00531250 3.77539
0.00546875 3.72106
0.00562500 3.66902
0.00578125 3.61910
0.00593750 3.57116
0.00609375 3.52508
0.00625000 3.48074
0.00640625 3.43803
0.00656250 3.39686
0.00671875 3.35713
0.00687500 3.31876
0.00718750 3.24581
0.00750000 3.17747
0.00781250 3.11328
0.00812500 3.05282
0.00843750 2.99575
0.00875000 2.94177
0.00906250 2.89060
0.00937500 2.84202
0.00968750 2.79581
0.0100000 2.75178
0.0103125 2.70976
0.0106250 2.66962
0.0109375 2.63120
0.0112500 2.59440
0.0115625 2.55911
0.0118750 2.52521
0.0121875 2.49263
0.0125000 2.46128
0.0128125 2.43108
0.0131250 2.40197
0.0134375 2.37388
0.0137500 2.34675
0.0143750 2.29517
0.0150000 2.24685
0.0156250 2.20146
0.0162500 2.15871
0.0168750 2.11836
0.0175000 2.08019
0.0181250 2.04400
0.0187500 2.00965
0.0193750 1.97697
0.0200000 1.94583
0.0206625 1.91438
0.0213250 1.88441
0.0219875 1.85580
0.0226500 1.82846
0.0233125 1.80229
0.0239750 1.77721
0.0246375 1.75316
0.0253000 1.73005
0.0264578 1.69178
0.0276156 1.65594
0.0287734 1.62229
0.0299313 1.59061
0.0310891 1.56073
0.0322469 1.53246
0.0334047 1.50568
0.0345625 1.48025
0.0355274 1.46002
0.0364922 1.44060
0.0374570 1.42192
0.0384219 1.40396
0.0393867 1.38666
0.0403516 1.36998
0.0413164 1.35389
0.0422813 1.33835
0.0442109 1.30882
0.0461406 1.28115
0.0480703 1.25517
0.0500000 1.23071
0.0515625 1.21192
0.0531250 1.19397
0.0546875 1.17679
0.0562500 1.16033
0.0578125 1.14454
0.0593750 1.12939
0.0609375 1.11482
0.0625000 1.10080
0.0640625 1.08730
0.0656250 1.07429
0.0671875 1.06173
0.0687500 1.04960
0.0718750 1.02655
0.0750000 1.00495
0.0781250 0.984647
0.0812500 0.965530
0.0843750 0.947482
0.0875000 0.930410
0.0906250 0.914228
0.0937500 0.898862
0.0968750 0.884247
0.100000 0.870322
0.103125 0.857035
0.106250 0.844340
0.109375 0.832193
0.112500 0.820555
0.115625 0.809394
0.118750 0.798677
0.121875 0.788376
0.125000 0.778465
0.128125 0.768920
0.131250 0.759721
0.134375 0.750845
0.137500 0.742274
0.143750 0.725977
0.150000 0.710704
0.156250 0.696352
0.162500 0.682834
0.168750 0.670073
0.175000 0.658003
0.181250 0.646564
0.187500 0.635705
0.193750 0.625379
0.200000 0.615542
0.209375 0.601621
0.218750 0.588599
0.228125 0.576384
0.237500 0.564899
0.246875 0.554075
0.256250 0.543850
0.265625 0.534173
0.275000 0.524995
0.284375 0.516275
0.293750 0.507976
0.303125 0.500066
0.312500 0.492514
0.321875 0.485295
0.331250 0.478385
0.340625 0.471763
0.350000 0.465408
0.359375 0.459305
0.368750 0.453436
0.378125 0.447787
0.387500 0.442348
0.396875 0.437105
0.406250 0.432047
0.425000 0.422435
0.443750 0.413430
0.462500 0.404974
0.500000 0.389540
0.531250 0.377949
0.562500 0.367316
0.593750 0.357532
0.625000 0.348494
0.687500 0.332305
0.750000 0.318188
0.812500 0.305736
0.875000 0.294677
0.937500 0.284742
1.00000 0.275724
1.06250 0.267516
1.12500 0.260004
1.18750 0.253094
1.25000 0.246711
1.37500 0.235280
1.50000 0.225313
1.62500 0.216523
1.75000 0.208715
1.87500 0.201703
2.00000 0.195333
2.18750 0.186831
2.37500 0.179370
2.56250 0.172747
2.75000 0.166829
2.93750 0.161490
3.12500 0.156629
3.31250 0.152189
3.50000 0.148114
3.87500 0.140876
4.25000 0.134627
4.62500 0.129162
5.00000 0.124335
5.31250 0.120715
5.62500 0.117400
5.93750 0.114354
6.25000 0.111544
6.87500 0.106519
7.50000 0.102148
8.12500 0.0983046
8.75000 0.0948959
9.37500 0.0918447
10.0000 0.0890901
10.6250 0.0865922
11.2500 0.0843151
11.8750 0.0822296
12.5000 0.0803116
13.7500 0.0769018
15.0000 0.0739610
16.2500 0.0713989
17.5000 0.0691508
18.7500 0.0671631
20.0000 0.0653933
21.8750 0.0630876
23.7500 0.0611320
25.6250 0.0594669
27.5000 0.0580503
29.3750 0.0568478
31.2500 0.0558326
33.1250 0.0549876
35.0000 0.0542982
36.8750 0.0537537
38.7500 0.0533465
40.6250 0.0530715
42.5000 0.0529259
44.3750 0.0529091
46.2500 0.0530224
48.1250 0.0532694
50.0000 0.0536575
53.1250 0.0546314
54.6875 0.0552843
56.2500 0.0560631
57.8125 0.0569754
59.3750 0.0580331
60.9375 0.0592509
62.5000 0.0606456
64.0625 0.0622375
65.6250 0.0640506
67.1875 0.0661134
68.7500 0.0684602
70.3125 0.0711321
71.8750 0.0741786
73.4375 0.0776601
75.0000 0.0816503
76.1719 0.0850527
77.3438 0.0887709
78.5156 0.0929728
79.6875 0.0976712
80.8594 0.102959
82.0313 0.108913
83.2031 0.115669
83.7891 0.119381
84.3750 0.123345
85.1563 0.129069
85.9375 0.135344
86.7188 0.142245
87.5000 0.149854
88.2813 0.158270
89.0625 0.167611
89.8438 0.178016
90.6250 0.189651
91.4063 0.202666
91.7969 0.209762
92.1875 0.217346
92.5781 0.225425
92.9688 0.234038
93.3594 0.243233
93.7500 0.253065
94.2871 0.267733
94.8242 0.283898
95.3613 0.301769
95.8984 0.321596
96.4356 0.343676
96.9727 0.368365
97.2412 0.381818
97.5098 0.396090
97.7783 0.411251
98.0469 0.427373
98.2910 0.442937
98.5352 0.459434
98.7793 0.476942
99.0234 0.495546
99.2676 0.515338
99.5117 0.536421
99.7559 0.558899
100.000 0.582894
100.353 0.620558
100.705 0.662257
101.058 0.708560
101.410 0.760141
101.587 0.788163
101.763 0.817801
101.939 0.849179
102.115 0.882450
102.292 0.917856
102.468 0.955571
102.644 0.995782
102.821 1.03867
103.049 1.09863
103.277 1.16409
103.505 1.23579
103.733 1.31455
103.961 1.40133
104.189 1.49727
104.417 1.60371
104.645 1.72223
104.863 1.84845
104.972 1.91696
105.081 1.98943
105.190 2.06620
105.299 2.14759
105.408 2.23400
105.517 2.32575
105.625 2.42349
105.734 2.52764
105.843 2.63876
105.952 2.75736
106.061 2.88438
106.170 3.02050
106.279 3.16665
106.388 3.32372
106.502 3.50161
106.616 3.69434
106.730 3.90399
106.844 4.13218
106.958 4.38160
107.072 4.65448
107.186 4.95441
107.300 5.28450
107.414 5.64964
107.528 6.05466
107.642 6.50565
107.699 6.75038
107.756 7.00942
107.813 7.28442
107.870 7.57568
107.927 7.88562
107.984 8.21471
108.042 8.56583
108.099 8.93968
108.156 9.33897
108.213 9.76611
108.290 10.3990
108.368 11.0967
108.446 11.8686
108.524 12.7248
108.563 13.1894
108.601 13.6807
108.640 14.2006
108.679 14.7501
108.718 15.3345
108.757 15.9554
108.796 16.6159
108.835 17.3177
108.871 18.0167
108.907 18.7602
108.944 19.5522
108.980 20.3974
109.016 21.3006
109.052 22.2675
109.089 23.3045
109.125 24.4156
109.154 25.3532
109.182 26.3448
109.211 27.3987
109.239 28.5204
109.268 29.7206
109.296 30.9979
109.325 32.3644
109.353 33.8292
109.382 35.4082
109.410 37.1022
109.439 38.9298
109.467 40.9063
109.496 43.0495
109.524 45.3794
109.553 47.9196
109.581 50.6968
109.598 52.4681
109.615 54.3294
109.632 56.3108
109.649 58.3973
109.666 60.6228
109.682 62.9711
109.699 65.4810
109.716 68.1345
109.733 70.9759
109.750 73.9852
109.767 77.2130
109.783 80.6369
109.800 84.3148
109.817 88.2212
109.834 92.4220
109.851 96.8882
109.865 100.934
109.879 105.219
109.894 109.758
109.908 114.531
109.922 119.622
109.936 124.976
109.951 130.684
109.965 136.684
109.979 143.078
109.993 149.794
110.008 156.944
110.022 164.447
110.036 172.426
110.050 180.787
110.065 189.666
110.079 198.955
110.098 212.507
110.118 226.940
110.137 242.436
110.157 258.868
110.176 276.427
110.196 294.952
110.215 314.642
110.235 335.293
110.249 351.188
110.263 367.527
110.277 384.529
110.292 401.941
110.320 438.392
110.349 476.673
110.377 516.509
110.406 557.553
110.434 599.390
110.463 641.540
110.520 724.724
110.548 764.402
110.577 802.009
110.610 842.235
110.643 877.827
110.676 907.883
110.709 931.614
110.732 943.942
110.755 952.769
110.777 958.058
110.800 959.693
110.823 957.668
110.841 953.341
110.860 946.650
110.878 937.653
110.897 926.429
110.915 913.074
110.934 897.701
110.952 880.439
110.971 861.538
111.001 827.287
111.031 789.651
111.061 749.258
111.091 706.856
111.121 663.327
111.151 619.228
111.210 531.986
111.240 489.781
111.270 449.162
111.300 410.470
111.330 374.081
111.360 339.926
111.390 308.237
111.405 293.283
111.420 279.053
111.435 265.353
111.449 252.358
111.464 239.885
111.479 228.088
111.494 216.795
111.509 206.142
111.524 195.969
111.539 186.394
111.554 177.327
111.569 168.751
111.584 160.592
111.599 152.939
111.614 145.667
111.629 138.855
111.644 132.390
111.659 126.337
111.674 120.597
111.689 115.226
111.704 110.135
111.718 105.372
111.733 100.856
111.748 96.6313
111.763 92.6250
111.778 88.8753
111.793 85.3404
111.808 82.0068
111.827 78.0074
111.846 74.3112
111.865 70.8735
111.884 67.6729
111.903 64.6747
111.922 61.8923
111.941 59.2930
111.960 56.8617
111.979 54.5731
111.998 52.4384
112.017 50.4340
112.036 48.5495
112.055 46.7753
112.074 45.1028
112.112 42.0326
112.142 39.8455
112.172 37.8352
112.202 35.9821
112.232 34.2696
112.262 32.6831
112.292 31.2099
112.322 29.8389
112.351 28.5646
112.381 27.3699
112.411 26.2517
112.441 25.2032
112.471 24.2218
112.501 23.2956
112.531 22.4233
112.561 21.6006
112.590 20.8262
112.650 19.3960
112.710 18.1118
112.770 16.9538
112.830 15.9074
112.889 14.9553
112.949 14.0891
113.009 13.2960
113.069 12.5703
113.123 11.9603
113.177 11.3952
113.232 10.8689
113.286 10.3794
113.340 9.92188
113.395 9.49498
113.449 9.09529
113.503 8.72051
113.558 8.36797
113.612 8.03712
113.666 7.72564
113.721 7.43204
113.775 7.15446
113.829 6.89271
113.938 6.41077
113.998 6.16680
114.057 5.93656
114.117 5.71906
114.177 5.51368
114.297 5.13434
114.416 4.79328
114.536 4.48499
114.655 4.20586
114.775 3.95209
114.894 3.72070
114.976 3.57440
115.057 3.43661
115.139 3.30669
115.220 3.18404
115.302 3.06814
115.383 2.95850
115.546 2.75624
115.709 2.57409
115.872 2.40940
116.035 2.25999
116.198 2.12412
116.318 2.03203
116.437 1.94588
116.557 1.86504
116.676 1.78922
116.796 1.71789
116.915 1.65081
117.035 1.58759
117.154 1.52796
117.274 1.47159
117.393 1.41834
117.632 1.32019
117.872 1.23190
118.111 1.15226
118.350 1.08011
118.589 1.01457
118.828 0.954865
119.067 0.900335
119.306 0.850363
119.545 0.804493
119.784 0.762259
120.023 0.723339
120.240 0.690536
120.458 0.659983
120.675 0.631426
120.892 0.604672
121.110 0.579571
121.327 0.556027
121.544 0.533911
121.762 0.513109
121.979 0.493513
122.196 0.475047
122.414 0.457619
122.631 0.441152
123.066 0.410825
123.500 0.383595
123.739 0.369783
123.978 0.356723
124.457 0.332658
124.935 0.311017
125.413 0.291488
125.891 0.273801
126.369 0.257740
126.847 0.243107
127.325 0.229740
127.651 0.221277
127.977 0.213298
128.303 0.205764
128.629 0.198645
129.281 0.185537
129.933 0.173812
130.585 0.163203
131.237 0.153584
131.889 0.144855
132.541 0.136909
133.019 0.131526
133.497 0.126485
133.976 0.121755
134.454 0.117313
134.932 0.113135
135.410 0.109202
136.366 0.101996
137.322 0.0955626
138.279 0.0897985
139.235 0.0846125
140.191 0.0799303
140.800 0.0771836
141.408 0.0746015
142.625 0.0698796
143.842 0.0656751
145.059 0.0619162
146.276 0.0585722
147.493 0.0555237
148.710 0.0527676
149.927 0.0502703
150.884 0.0484743
151.840 0.0467982
152.796 0.0452302
153.752 0.0437759
155.665 0.0411355
157.577 0.0388217
159.490 0.0367711
161.402 0.0349552
163.315 0.0333366
165.227 0.0318848
166.879 0.0307527
168.531 0.0297184
171.834 0.0279063
175.138 0.0263632
178.441 0.0250554
180.093 0.0244689
181.744 0.0239324
183.396 0.0234224
185.048 0.0229616
188.351 0.0221204
191.655 0.0213928
195.827 0.0206173
200.000 0.0199648
203.654 0.0194918
207.307 0.0190951
210.961 0.0187660
214.614 0.0184991
218.268 0.0182908
221.921 0.0181383
225.575 0.0180405
229.228 0.0179986
233.926 0.0180304
238.623 0.0181603
243.320 0.0183947
245.669 0.0185468
248.018 0.0187454
250.366 0.0189610
252.715 0.0192298
255.064 0.0195259
257.412 0.0198719
259.761 0.0202545
262.110 0.0206997
264.458 0.0212049
266.807 0.0217784
269.547 0.0225480
272.287 0.0234387
275.028 0.0244704
277.768 0.0256791
279.138 0.0263549
280.508 0.0270945
281.878 0.0278894
283.248 0.0287537
284.618 0.0297036
285.988 0.0307281
287.358 0.0318490
288.728 0.0330689
290.164 0.0344872
291.599 0.0360555
293.034 0.0377953
294.469 0.0397319
295.905 0.0418947
297.340 0.0443205
298.775 0.0470525
300.211 0.0501432
301.385 0.0529849
302.559 0.0561535
303.734 0.0597015
304.908 0.0636906
305.495 0.0658735
306.082 0.0681976
306.670 0.0706725
307.257 0.0733046
307.844 0.0761072
308.431 0.0791184
309.018 0.0823524
309.605 0.0858244
310.323 0.0904271
311.041 0.0954713
311.758 0.101016
312.476 0.107127
313.194 0.113888
313.911 0.121393
314.629 0.129756
315.347 0.139112
315.999 0.148619
316.652 0.159230
316.978 0.165004
317.304 0.171125
317.630 0.177620
317.956 0.184521
318.283 0.191861
318.609 0.199681
318.935 0.208020
319.261 0.216924
319.587 0.226439
319.914 0.236621
320.240 0.247542
320.566 0.259290
320.925 0.273278
321.284 0.288497
321.642 0.305091
322.001 0.323228
322.360 0.343113
322.719 0.364965
323.078 0.389060
323.437 0.415719
323.795 0.445327
324.154 0.478319
324.334 0.496252
324.513 0.515245
324.692 0.535382
324.872 0.556758
325.051 0.579490
325.231 0.603669
325.410 0.629435
325.590 0.656928
325.769 0.686308
325.948 0.717749
326.128 0.751445
326.307 0.787617
326.519 0.833920
326.731 0.884486
326.943 0.939928
327.155 1.00085
327.367 1.06809
327.579 1.14248
327.791 1.22510
327.897 1.26989
328.003 1.31724
328.183 1.40375
328.362 1.49926
328.542 1.60507
328.721 1.72274
328.811 1.78658
328.900 1.85412
328.990 1.92563
329.080 2.00146
329.170 2.08194
329.259 2.16748
329.349 2.25852
329.439 2.35555
329.577 2.51864
329.716 2.69955
329.855 2.90134
329.924 3.01097
329.993 3.12710
330.063 3.25045
330.132 3.38127
330.201 3.52039
330.271 3.66855
330.340 3.82682
330.409 3.99568
330.479 4.17637
330.548 4.37008
330.613 4.56572
330.678 4.77503
330.744 5.00009
330.809 5.24182
330.899 5.60564
330.988 6.01094
331.033 6.23154
331.078 6.46475
331.123 6.71278
331.168 6.97582
331.213 7.25648
331.257 7.55518
331.302 7.87513
331.347 8.21705
331.392 8.58493
331.437 8.97998
331.482 9.40626
331.526 9.86759
331.559 10.2290
331.592 10.6121
331.624 11.0204
331.657 11.4561
331.690 11.9237
331.722 12.4233
331.755 12.9599
331.787 13.5374
331.820 14.1622
331.853 14.8356
331.885 15.5650
331.918 16.3568
331.951 17.2206
331.983 18.1592
332.016 19.1839
332.032 19.7315
332.048 20.3044
332.071 21.1392
332.093 22.0246
332.116 22.9726
332.138 23.9791
332.161 25.0578
332.183 26.2040
332.205 27.4275
332.228 28.7340
332.250 30.1357
332.273 31.6262
332.295 33.2180
332.318 34.9178
332.340 36.7411
332.362 38.6789
332.385 40.7466
332.407 42.9521
332.429 45.2059
332.450 47.5898
332.472 50.1212
332.493 52.8076
332.514 55.6564
332.536 58.6750
332.557 61.8710
332.579 65.2518
332.600 68.8247
332.621 72.5968
332.643 76.5750
332.664 80.7659
332.686 85.1759
332.707 89.8106
332.728 94.6754
332.750 99.7750
332.772 105.394
332.795 111.255
332.817 117.383
332.839 123.782
332.862 130.481
332.884 137.421
332.907 144.627
332.929 152.097
332.952 159.861
332.974 167.841
333.019 184.518
333.064 202.110
333.109 220.418
333.153 239.371
333.198 258.702
333.288 297.802
333.361 329.045
333.435 358.321
333.480 374.727
333.524 389.622
333.569 402.784
333.614 413.974
333.649 421.192
333.684 427.004
333.719 431.343
333.754 434.153
333.800 435.488
333.812 435.384
333.850 433.844
333.887 430.483
333.925 425.348
333.963 418.530
334.013 407.111
334.062 393.173
334.117 375.191
334.172 355.022
334.219 336.583
334.265 317.233
334.358 277.051
334.451 236.807
334.498 217.290
334.544 198.451
334.599 177.262
334.627 167.175
334.654 157.487
334.682 148.145
334.709 139.226
334.736 130.673
334.764 122.555
334.787 115.968
334.810 109.698
334.834 103.689
334.857 97.9895
334.880 92.5450
334.903 87.3970
334.927 82.4948
334.950 77.8734
334.973 73.4851
334.996 69.3593
335.020 65.4517
335.043 61.7868
335.066 58.3236
335.089 55.0825
335.113 52.0259
335.136 49.1706
335.159 46.4824
335.182 43.9751
335.206 41.6178
335.229 39.4218
335.252 37.3593
335.275 35.4395
335.299 33.6377
335.322 31.9615
335.345 30.3889
335.368 28.9261
335.392 27.5536
335.415 26.2768
335.438 25.0785
335.461 23.9630
335.485 22.9197
335.508 21.9434
335.528 21.1481
335.548 20.3965
335.588 19.0169
335.628 17.7777
335.668 16.6673
335.709 15.6645
335.749 14.7608
335.789 13.9397
335.829 13.1950
335.869 12.5140
335.909 11.8925
335.949 11.3205
335.990 10.7952
336.030 10.3088
336.070 9.85944
336.110 9.44114
336.150 9.05268
336.197 8.63449
336.243 8.24733
336.290 7.88791
336.336 7.55338
336.383 7.24130
336.429 6.94951
336.476 6.67617
336.522 6.41962
336.569 6.17841
336.615 5.95128
336.662 5.73707
336.708 5.53477
336.801 5.16232
336.894 4.82801
336.949 4.64572
337.004 4.47423
337.059 4.31209
337.114 4.15916
337.224 3.87718
337.334 3.62368
337.444 3.39486
337.553 3.18754
337.663 2.99904
337.773 2.82726
337.866 2.69326
337.959 2.56874
338.052 2.45279
338.145 2.34465
338.238 2.24360
338.331 2.14905
338.424 2.06043
338.517 1.97735
338.610 1.89917
338.703 1.82561
338.796 1.75629
338.889 1.69090
338.982 1.62914
339.075 1.57074
339.261 1.46317
339.447 1.36635
339.633 1.27895
339.819 1.19977
340.005 1.12785
340.191 1.06224
340.377 1.00231
340.563 0.947338
340.749 0.896863
340.901 0.858529
341.053 0.822641
341.205 0.788993
341.357 0.757419
341.510 0.727710
341.662 0.699754
341.814 0.673379
341.966 0.648499
342.118 0.624972
342.270 0.602717
342.575 0.561687
342.879 0.524770
343.183 0.491434
343.369 0.472627
343.555 0.454900
343.741 0.438172
343.927 0.422377
344.299 0.393281
344.671 0.367163
345.043 0.343615
345.415 0.322323
345.787 0.303002
346.159 0.285417
346.598 0.266593
347.038 0.249632
347.478 0.234295
347.917 0.220390
348.357 0.207748
348.796 0.196223
349.236 0.185665
349.675 0.175967
350.047 0.168366
350.419 0.161276
350.791 0.154648
351.163 0.148447
351.535 0.142634
351.907 0.137181
352.279 0.132056
352.651 0.127235
353.023 0.122692
353.395 0.118410
354.139 0.110545
354.883 0.103507
355.626 0.0971842
356.438 0.0909923
357.249 0.0854395
358.061 0.0804415
358.872 0.0759273
359.684 0.0718372
360.495 0.0681238
361.307 0.0647546
362.118 0.0616651
362.862 0.0590547
363.606 0.0566407
364.350 0.0544048
365.094 0.0523309
365.838 0.0504035
366.582 0.0486093
367.326 0.0469373
368.069 0.0453769
368.813 0.0439181
369.557 0.0425531
371.045 0.0400751
372.533 0.0378908
374.020 0.0359581
375.035 0.0347666
376.049 0.0336664
377.064 0.0326493
378.078 0.0317080
379.092 0.0308359
380.107 0.0300274
381.121 0.0292786
382.136 0.0285934
384.164 0.0273443
386.193 0.0262659
388.222 0.0253367
390.251 0.0245383
392.415 0.0238138
394.579 0.0232062
396.743 0.0227039
398.907 0.0222981
401.071 0.0219816
403.235 0.0217496
405.399 0.0215986
407.563 0.0215268
410.403 0.0215540
413.243 0.0217197
416.084 0.0220311
418.924 0.0225077
420.344 0.0228109
421.764 0.0231674
423.184 0.0235726
424.604 0.0240358
426.025 0.0245674
427.445 0.0251629
428.865 0.0258353
430.285 0.0265886
431.773 0.0274915
433.260 0.0285170
434.748 0.0296829
436.236 0.0310114
437.724 0.0325293
439.211 0.0342695
439.955 0.0352355
440.699 0.0362733
441.443 0.0373895
442.187 0.0385915
443.201 0.0403853
444.216 0.0423802
445.230 0.0446062
446.244 0.0470916
447.259 0.0498783
448.273 0.0530372
448.780 0.0547725
449.288 0.0566230
449.795 0.0585991
450.302 0.0607118
451.046 0.0640861
451.790 0.0678298
452.534 0.0719983
453.278 0.0766581
454.021 0.0818889
454.393 0.0847484
454.765 0.0877878
455.137 0.0910242
455.509 0.0944732
455.881 0.0981546
456.253 0.102090
456.760 0.107910
457.267 0.114315
457.775 0.121381
458.282 0.129200
458.789 0.137890
459.296 0.147601
459.550 0.152889
459.803 0.158497
460.057 0.164448
460.311 0.170769
460.683 0.180785
461.054 0.191781
461.426 0.203898
461.798 0.217286
462.170 0.232137
462.542 0.248665
462.728 0.257643
462.914 0.267139
463.100 0.277205
463.286 0.287877
463.607 0.307914
463.929 0.330223
464.089 0.342341
464.250 0.355169
464.410 0.368763
464.571 0.383184
464.732 0.398511
464.892 0.414801
465.053 0.432148
465.213 0.450647
465.374 0.470404
465.535 0.491540
465.695 0.514188
465.856 0.538500
466.042 0.568961
466.228 0.602181
466.414 0.638506
466.600 0.678317
466.786 0.722125
466.972 0.770438
467.158 0.823960
467.344 0.883415
467.437 0.915679
467.530 0.949800
467.623 0.985923
467.716 1.02421
467.809 1.06485
467.902 1.10803
467.995 1.15397
468.087 1.20287
468.180 1.25511
468.273 1.31095
468.366 1.37073
468.459 1.43484
468.552 1.50372
468.645 1.57789
468.738 1.65790
468.831 1.74433
468.933 1.84708
469.034 1.95951
469.136 2.08321
469.237 2.21953
469.339 2.37067
469.440 2.53869
469.491 2.62996
469.541 2.72660
469.592 2.82910
469.643 2.93798
469.727 3.13554
469.812 3.35559
469.854 3.47551
469.896 3.60243
469.939 3.73763
469.981 3.88123
470.023 4.03479
470.066 4.19895
470.108 4.37483
470.150 4.56325
470.192 4.76653
470.235 4.98535
470.277 5.22261
470.319 5.47930
470.359 5.74461
470.399 6.03257
470.440 6.34585
470.480 6.68655
470.520 7.05971
470.560 7.46722
470.600 7.91532
470.640 8.40645
470.681 8.94824
470.721 9.54374
470.761 10.2022
470.801 10.9274
470.841 11.7304
470.861 12.1630
470.881 12.6155
470.901 13.0934
470.921 13.5958
470.942 14.1239
470.962 14.6761
470.985 15.3548
471.008 16.0702
471.031 16.8306
471.055 17.6318
471.078 18.4828
471.101 19.3786
471.124 20.3291
471.148 21.3286
471.171 22.3880
471.194 23.5006
471.217 24.6783
471.241 25.9132
471.264 27.2185
471.287 28.5850
471.310 30.0205
471.333 31.5271
471.356 33.0371
471.378 34.6158
471.400 36.2646
471.422 37.9850
471.444 39.7783
471.467 41.6457
471.489 43.5882
471.511 45.6065
471.533 47.7013
471.555 49.8728
471.578 52.1213
471.600 54.4466
471.644 59.3257
471.689 64.4914
471.735 70.2205
471.782 76.2441
471.828 82.5354
471.874 89.0460
471.921 95.7630
471.967 102.624
472.060 116.552
472.153 130.318
472.246 143.339
472.310 151.475
472.373 158.787
472.420 163.520
472.466 167.639
472.504 170.537
472.542 172.951
472.581 174.873
472.619 176.272
472.659 177.181
472.700 177.474
472.727 177.325
472.771 176.500
472.815 174.961
472.860 172.729
472.904 169.842
472.940 166.973
472.976 163.710
473.013 160.064
473.049 156.085
473.122 147.238
473.195 137.454
473.268 127.017
473.340 116.216
473.486 94.5846
473.559 84.2142
473.631 74.4019
473.668 69.7352
473.704 65.2500
473.740 60.9557
473.777 56.8705
473.813 52.9766
473.849 49.2981
473.886 45.8152
473.922 42.5459
473.968 38.6673
473.992 36.8441
474.015 35.1067
474.038 33.4385
474.061 31.8521
474.084 30.3320
474.107 28.8892
474.131 27.5092
474.154 26.2018
474.177 24.9534
474.200 23.7725
474.223 22.6467
474.246 21.5833
474.269 20.5751
474.292 19.6198
474.329 18.2164
474.365 16.9298
474.402 15.7518
474.438 14.6767
474.474 13.6910
474.511 12.7925
474.547 11.9692
474.583 11.2189
474.620 10.5314
474.656 9.90287
474.693 9.32805
474.729 8.80329
474.765 8.32116
474.802 7.88015
474.838 7.47400
474.874 7.10151
474.911 6.75748
474.947 6.44012
474.983 6.14687
475.020 5.87612
475.056 5.62431
475.093 5.39034
475.129 5.17254
475.165 4.96993
475.202 4.78006
475.238 4.60230
475.274 4.43559
475.311 4.27936
475.347 4.13190
475.383 3.99325
475.456 3.73811
475.522 3.52873
475.588 3.33847
475.655 3.16459
475.721 3.00510
475.787 2.85809
475.853 2.72258
475.919 2.59711
475.985 2.48064
476.051 2.37213
476.117 2.27110
476.184 2.17671
476.250 2.08836
476.316 2.00552
476.382 1.92771
476.448 1.85453
476.514 1.78559
476.587 1.71419
476.660 1.64722
476.732 1.58414
476.805 1.52482
476.878 1.46880
476.951 1.41597
477.096 1.31876
477.241 1.23143
477.387 1.15272
477.532 1.08152
477.678 1.01692
477.777 0.976196
477.876 0.937934
477.975 0.901936
478.075 0.868025
478.174 0.836039
478.273 0.805835
478.471 0.750279
478.670 0.700384
478.868 0.655438
479.066 0.614758
479.265 0.577852
479.410 0.552895
479.556 0.529559
479.701 0.507706
479.847 0.487227
479.992 0.467982
480.138 0.449900
480.283 0.432864
480.428 0.416817
480.574 0.401663
480.719 0.387347
481.010 0.360998
481.301 0.337334
481.592 0.316002
481.883 0.296697
482.174 0.279182
482.465 0.263232
482.756 0.248674
483.047 0.235346
483.338 0.223121
483.629 0.211879
483.920 0.201515
484.211 0.191935
484.502 0.183064
484.792 0.174828
485.083 0.167168
485.374 0.160032
485.665 0.153378
485.956 0.147162
486.247 0.141347
486.538 0.135898
486.829 0.130788
487.120 0.125987
487.411 0.121473
487.702 0.117220
487.993 0.113212
488.574 0.105855
489.156 0.0992732
489.738 0.0933627
490.320 0.0880358
490.902 0.0832195
491.484 0.0788497
492.066 0.0748747
492.648 0.0712478
493.229 0.0679329
493.653 0.0656997
494.076 0.0636038
494.922 0.0597706
495.768 0.0563513
496.615 0.0532973
497.461 0.0505610
498.307 0.0481021
499.154 0.0458861
500.000 0.0438856
500.685 0.0424061
501.370 0.0410370
502.054 0.0397694
502.739 0.0385955
503.424 0.0375069
504.109 0.0364973
505.478 0.0346905
506.848 0.0331341
508.217 0.0317964
509.587 0.0306535
510.956 0.0296878
511.828 0.0291602
512.699 0.0286984
513.571 0.0283020
514.442 0.0279721
515.314 0.0277112
516.185 0.0275239
517.057 0.0274174
517.928 0.0274021
518.924 0.0275160
519.920 0.0278025
520.916 0.0283114
521.912 0.0291112
522.535 0.0298146
523.157 0.0307345
523.780 0.0319339
524.402 0.0335054
525.025 0.0355886
525.336 0.0368846
525.647 0.0383955
525.959 0.0401687
526.270 0.0422655
526.581 0.0447715
526.892 0.0477991
527.172 0.0510990
527.453 0.0550993
527.733 0.0600138
528.013 0.0661478
528.153 0.0698077
528.293 0.0739609
528.433 0.0787064
528.573 0.0841678
528.713 0.0905228
528.853 0.0979954
528.993 0.106929
529.133 0.117806
529.203 0.124209
529.273 0.131408
529.343 0.139594
529.413 0.148957
529.484 0.159800
529.554 0.172443
529.624 0.187345
529.694 0.205068
529.764 0.226353
529.834 0.252020
529.869 0.266838
529.904 0.283182
529.939 0.301226
529.974 0.321159
530.009 0.343254
530.044 0.367611
530.079 0.394535
530.114 0.424287
530.149 0.457151
530.184 0.493430
530.219 0.533445
530.254 0.577536
530.293 0.631904
530.332 0.692133
530.371 0.758889
530.409 0.832725
530.448 0.914203
530.487 1.00389
530.526 1.10236
530.565 1.21017
530.604 1.32784
530.643 1.45590
530.682 1.59479
530.721 1.74494
530.760 1.90668
530.798 2.08028
530.837 2.26590
530.876 2.46361
530.919 2.69502
530.962 2.94072
531.005 3.20023
531.047 3.47283
531.090 3.75758
531.133 4.05328
531.219 4.67148
531.421 6.19180
531.507 6.81018
531.549 7.10285
531.592 7.37992
531.643 7.68500
531.693 7.96048
531.736 8.16718
531.779 8.34724
531.822 8.49857
531.865 8.61936
531.916 8.72268
531.968 8.77734
532.000 8.78634
532.008 8.78564
532.034 8.77514
532.060 8.75214
532.112 8.66931
532.163 8.54040
532.215 8.36696
532.267 8.14465
532.320 7.88264
532.373 7.58454
532.426 7.25648
532.508 6.70131
532.589 6.10647
532.801 4.52205
532.851 4.15824
532.902 3.80686
532.952 3.47037
533.003 3.15138
533.053 2.85013
533.104 2.56886
533.129 2.43518
533.154 2.30707
533.179 2.18402
533.205 2.06602
533.243 1.89543
533.281 1.73681
533.320 1.58905
533.358 1.45260
533.397 1.32634
533.435 1.21049
533.474 1.10395
533.512 1.00677
533.551 0.917901
533.589 0.837260
533.628 0.763883
533.666 0.697608
533.704 0.637560
533.743 0.583536
533.781 0.534758
533.820 0.491009
533.853 0.456296
533.887 0.424814
533.921 0.396109
533.954 0.370103
533.988 0.346406
534.022 0.324941
534.055 0.305381
534.089 0.287654
534.156 0.256815
534.224 0.231225
534.291 0.209889
534.358 0.192015
534.425 0.176889
534.493 0.164006
534.560 0.152937
534.627 0.143342
534.695 0.134951
534.762 0.127552
534.896 0.115091
535.031 0.104963
535.166 0.0965502
535.300 0.0894385
535.435 0.0833483
535.569 0.0780680
535.704 0.0734534
535.838 0.0693907
535.973 0.0657934
536.242 0.0597120
536.511 0.0547926
536.780 0.0507450
537.050 0.0473717
537.280 0.0449048
537.511 0.0427576
537.972 0.0392200
538.434 0.0364485
538.895 0.0342363
539.472 0.0320406
540.049 0.0303038
540.625 0.0289061
541.202 0.0277674
541.779 0.0268280
542.356 0.0260461
542.932 0.0253915
543.509 0.0248393
544.663 0.0239519
545.816 0.0232848
546.970 0.0227808
548.123 0.0223973
549.200 0.0221224
550.276 0.0219109
552.430 0.0216424
554.583 0.0215065
556.736 0.0214786
558.428 0.0215193
560.120 0.0216035
563.503 0.0218884
566.887 0.0223114
570.270 0.0228648
573.654 0.0235428
577.038 0.0243579
580.421 0.0253231
583.805 0.0264623
585.881 0.0272687
587.957 0.0281750
590.034 0.0292034
592.110 0.0303682
593.148 0.0310324
594.186 0.0317595
595.224 0.0325626
596.263 0.0334598
597.301 0.0344765
598.339 0.0356483
599.377 0.0370212
600.415 0.0386683
601.338 0.0404806
601.799 0.0415512
602.261 0.0427620
602.722 0.0441445
603.184 0.0457394
603.645 0.0476005
604.106 0.0498042
604.491 0.0519816
604.875 0.0545625
605.260 0.0576668
605.644 0.0614603
606.029 0.0661830
606.221 0.0689999
606.413 0.0721970
606.606 0.0758566
606.798 0.0800765
606.990 0.0849949
607.182 0.0907859
607.375 0.0977037
607.567 0.106099
607.759 0.116532
607.855 0.122770
607.951 0.129899
608.048 0.138152
608.144 0.147819
608.240 0.159326
608.336 0.173251
608.432 0.190405
608.528 0.211835
608.576 0.224612
608.624 0.239015
608.672 0.255364
608.720 0.273886
608.773 0.297255
608.826 0.324223
608.879 0.355370
608.932 0.391283
608.985 0.432833
609.038 0.480774
609.091 0.536006
609.143 0.599378
609.170 0.634615
609.196 0.672181
609.223 0.712502
609.249 0.755419
609.276 0.801406
609.302 0.850264
609.328 0.902312
609.355 0.957704
609.381 1.01682
609.408 1.07936
609.434 1.14571
609.461 1.21599
609.487 1.29065
609.513 1.36926
609.540 1.45223
609.566 1.53968
609.593 1.63209
609.619 1.72887
609.646 1.83084
609.672 1.93732
609.699 2.04919
609.725 2.16565
609.751 2.28714
609.778 2.41370
609.831 2.68248
609.884 2.97123
609.936 3.27929
609.989 3.60491
610.028 3.85290
610.066 4.10831
610.143 4.64033
610.297 5.75393
610.403 6.51924
610.456 6.88881
610.508 7.24275
610.566 7.60690
610.624 7.94094
610.677 8.21683
610.729 8.45887
610.782 8.66332
610.835 8.82670
610.890 8.95050
610.945 9.02558
611.000 9.05063
611.008 9.05000
611.034 9.04068
611.059 9.02029
611.111 8.94684
611.162 8.83050
611.214 8.67315
611.281 8.40787
611.334 8.15655
611.387 7.87256
611.450 7.49981
611.513 7.09498
611.619 6.35689
611.725 5.58560
611.807 4.98906
611.890 4.40800
611.972 3.85428
612.013 3.59097
612.054 3.33771
612.112 2.99798
612.141 2.83669
612.170 2.68182
612.199 2.53241
612.228 2.38905
612.257 2.25177
612.285 2.12102
612.314 1.99585
612.343 1.87667
612.372 1.76340
612.401 1.65630
612.430 1.55451
612.459 1.45859
612.488 1.36771
612.517 1.28236
612.544 1.20824
612.570 1.13823
612.597 1.07218
612.623 1.01017
612.650 0.951584
612.677 0.896705
612.703 0.844966
612.730 0.796602
612.756 0.751096
612.783 0.708639
612.809 0.668763
612.836 0.631624
612.862 0.596797
612.889 0.564409
612.942 0.505910
612.995 0.455023
613.048 0.411003
613.101 0.372893
613.155 0.339920
613.208 0.311394
613.261 0.286698
613.314 0.265293
613.367 0.246705
613.418 0.231208
613.468 0.217593
613.519 0.205593
613.570 0.194978
613.671 0.177141
613.773 0.162824
613.874 0.151122
613.975 0.141386
614.077 0.133151
614.178 0.126086
614.280 0.119947
614.381 0.114559
614.584 0.105534
614.787 0.0982783
614.989 0.0923358
615.144 0.0884928
615.395 0.0832399
615.646 0.0789530
615.897 0.0754122
616.148 0.0724599
616.399 0.0699768
616.650 0.0678764
616.901 0.0660908
617.152 0.0645679
617.655 0.0621468
618.157 0.0603626
618.659 0.0590434
619.161 0.0580750
619.624 0.0574254
620.088 0.0569650
621.015 0.0564848
621.788 0.0564296
622.560 0.0566135
623.333 0.0569755
624.105 0.0574822
625.650 0.0588622
627.195 0.0606430
628.740 0.0627624
630.285 0.0651904
631.830 0.0679177
633.375 0.0709473
635.075 0.0746457
636.775 0.0787554
638.474 0.0833163
640.174 0.0883786
641.873 0.0940054
643.573 0.100272
645.272 0.107271
646.122 0.111079
646.972 0.115113
648.517 0.123086
650.062 0.131989
650.835 0.136834
651.607 0.141969
652.380 0.147416
653.152 0.153202
653.925 0.159356
654.697 0.165907
655.470 0.172891
656.242 0.180348
657.015 0.188315
657.787 0.196821
658.560 0.205924
659.332 0.215726
660.182 0.227393
661.032 0.240070
661.882 0.253873
662.731 0.268940
663.581 0.285430
664.431 0.303527
665.281 0.323449
666.130 0.345445
666.980 0.369822
667.830 0.396931
668.255 0.411640
668.680 0.427198
669.105 0.443672
669.530 0.461130
669.954 0.479662
670.379 0.499353
670.804 0.520303
671.229 0.542614
671.654 0.566420
672.079 0.591852
672.504 0.619058
672.929 0.648195
673.392 0.682412
673.856 0.719404
674.319 0.759507
674.783 0.803120
675.208 0.846566
675.632 0.893705
676.057 0.944953
676.482 1.00079
676.907 1.06179
677.332 1.12859
677.757 1.20197
678.182 1.28279
678.568 1.36365
678.954 1.45247
679.341 1.55034
679.534 1.60304
679.727 1.65850
679.920 1.71692
680.113 1.77848
680.306 1.84342
680.499 1.91200
680.693 1.98455
680.886 2.06129
681.079 2.14261
681.272 2.22888
681.484 2.33006
681.697 2.43830
681.909 2.55441
682.122 2.67905
682.334 2.81319
682.547 2.95769
682.759 3.11381
682.971 3.28266
683.184 3.46584
683.396 3.66485
683.609 3.88178
683.715 3.99755
683.821 4.11864
683.928 4.24549
684.034 4.37822
684.140 4.51733
684.246 4.66325
684.352 4.81644
684.459 4.97737
684.565 5.14660
684.671 5.32470
684.768 5.49494
684.864 5.67356
684.961 5.86114
685.057 6.05808
685.154 6.26545
685.250 6.48378
685.347 6.71388
685.444 6.95634
685.540 7.21263
685.637 7.48355
685.733 7.77025
685.830 8.07368
685.926 8.39587
686.023 8.73770
686.120 9.10159
686.216 9.48869
686.322 9.94495
686.429 10.4351
686.535 10.9632
686.641 11.5332
686.747 12.1504
686.853 12.8191
686.960 13.5458
687.066 14.3376
687.172 15.2034
687.278 16.1511
687.331 16.6592
687.385 17.1923
687.438 17.7519
687.491 18.3398
687.544 18.9580
687.597 19.6086
687.650 20.2938
687.703 21.0161
687.756 21.7781
687.809 22.5827
687.862 23.4330
687.916 24.3323
687.969 25.2862
688.022 26.2948
688.075 27.3643
688.128 28.4989
688.181 29.7037
688.234 30.9839
688.287 32.3448
688.340 33.7925
688.394 35.3361
688.447 36.9765
688.500 38.7235
688.553 40.5844
688.606 42.5667
688.659 44.6783
688.712 46.9274
688.765 49.3221
688.833 52.5947
688.901 56.1341
688.968 59.9572
689.036 64.0800
689.103 68.5174
689.171 73.2824
689.239 78.3855
689.306 83.8259
689.359 88.3590
689.412 93.0991
689.465 98.0524
689.519 103.215
689.572 108.579
689.625 114.136
689.731 125.777
689.837 138.019
689.943 150.657
690.156 176.205
690.295 192.233
690.365 199.756
690.434 206.814
690.504 213.332
690.573 219.209
690.643 224.361
690.712 228.704
690.784 232.284
690.856 234.878
690.928 236.442
691.000 236.949
691.048 236.694
691.126 235.276
691.204 232.641
691.282 228.843
691.360 223.953
691.438 218.067
691.515 211.294
691.593 203.755
691.671 195.579
691.752 186.605
691.832 177.254
691.993 157.960
692.154 138.725
692.234 129.401
692.315 120.387
692.398 111.402
692.482 102.890
692.565 94.8781
692.649 87.3896
692.733 80.4338
692.816 74.0082
692.900 68.1008
692.983 62.6920
693.067 57.7510
693.151 53.2606
693.234 49.1832
693.318 45.4866
693.402 42.1347
693.485 39.1038
693.569 36.3597
693.652 33.8741
693.710 32.3113
693.767 30.8515
693.824 29.4846
693.881 28.2037
693.938 27.0005
693.995 25.8733
694.052 24.8144
694.109 23.8188
694.166 22.8803
694.223 21.9978
694.280 21.1656
694.337 20.3802
694.394 19.6382
694.451 18.9365
694.565 17.6430
694.648 16.7771
694.732 15.9754
694.816 15.2308
694.899 14.5380
694.983 13.8915
695.067 13.2886
695.150 12.7248
695.234 12.1967
695.317 11.7008
695.401 11.2355
695.485 10.7979
695.568 10.3857
695.652 9.99702
695.735 9.63007
695.819 9.28323
695.903 8.95504
696.070 8.34908
696.237 7.80331
696.405 7.30993
696.572 6.86264
696.739 6.45537
696.906 6.08386
697.074 5.74364
697.241 5.43161
697.385 5.18215
697.530 4.94979
697.674 4.73269
697.819 4.52980
697.963 4.33963
698.107 4.16137
698.252 3.99392
698.396 3.83641
698.541 3.68798
698.685 3.54811
698.830 3.41607
698.974 3.29129
699.263 3.06139
699.552 2.85489
699.719 2.74471
699.886 2.64082
700.054 2.54273
700.221 2.45008
700.555 2.27934
700.890 2.12590
701.224 1.98748
701.559 1.86219
701.893 1.74840
702.228 1.64476
702.623 1.53377
703.018 1.43367
703.414 1.34309
703.809 1.26089
704.204 1.18606
704.600 1.11773
704.995 1.05514
705.390 0.997650
705.725 0.952574
706.059 0.910476
706.394 0.871106
706.728 0.834236
707.063 0.799662
707.397 0.767198
707.732 0.736675
708.066 0.707942
708.401 0.680860
708.735 0.655307
709.070 0.631169
709.404 0.608344
710.073 0.566265
710.742 0.528421
711.411 0.494252
712.080 0.463303
712.749 0.435181
713.418 0.409552
714.087 0.386129
714.756 0.364668
715.425 0.344955
716.094 0.326808
716.641 0.313009
717.189 0.300079
717.736 0.287956
718.283 0.276571
718.831 0.265844
719.378 0.255718
719.926 0.246153
720.473 0.237117
721.020 0.228571
721.568 0.220484
722.662 0.205555
723.757 0.192105
724.852 0.179945
725.521 0.173079
726.190 0.166603
726.859 0.160488
727.528 0.154708
728.866 0.144057
730.204 0.134484
731.542 0.125847
732.880 0.118029
734.218 0.110929
735.555 0.104462
737.137 0.0975367
738.718 0.0912918
740.299 0.0856408
741.880 0.0805113
743.462 0.0758438
745.043 0.0716067
746.624 0.0677020
748.205 0.0641154
749.543 0.0613080
750.881 0.0586862
752.219 0.0562341
753.557 0.0539410
754.895 0.0517907
756.233 0.0497705
757.571 0.0478731
758.909 0.0460879
760.247 0.0444042
761.585 0.0428167
764.261 0.0399005
766.937 0.0372892
769.613 0.0349406
772.289 0.0328225
774.965 0.0309044
777.641 0.0291624
780.317 0.0275760
782.993 0.0261265
785.669 0.0247992
788.345 0.0235807
791.021 0.0224592
793.575 0.0214771
796.129 0.0205614
798.684 0.0197124
801.238 0.0189133
803.792 0.0181751
806.346 0.0174865
808.901 0.0168364
811.455 0.0162335
816.564 0.0151319
821.672 0.0141627
826.781 0.0132998
831.890 0.0125294
837.241 0.0118124
842.593 0.0111699
847.945 0.0105941
853.297 0.0100784
858.649 0.00961212
864.001 0.00919289
869.353 0.00881478
874.705 0.00847310
879.084 0.00822020
883.462 0.00798975
887.841 0.00778124
892.220 0.00759493
896.599 0.00743229
900.978 0.00729660
905.356 0.00719429
909.735 0.00713639
914.114 0.00714677
918.493 0.00727582
920.682 0.00741608
922.872 0.00764050
925.061 0.00799832
927.251 0.00857060
928.285 0.00896115
929.318 0.00947794
930.352 0.0101685
931.386 0.0111125
932.420 0.0124381
932.937 0.0133089
933.454 0.0143771
933.971 0.0157126
934.488 0.0174122
935.005 0.0196193
935.522 0.0225566
935.887 0.0252645
936.252 0.0287323
936.617 0.0333088
936.799 0.0361913
936.981 0.0396238
937.164 0.0438016
937.346 0.0490233
937.529 0.0557918
937.711 0.0649285
937.803 0.0707949
937.894 0.0778259
937.985 0.0863401
938.076 0.0967327
938.167 0.109497
938.259 0.125244
938.350 0.144716
938.441 0.168809
938.513 0.191886
938.585 0.219092
938.658 0.251124
938.730 0.288720
938.802 0.332743
938.874 0.383922
938.947 0.443203
939.019 0.511501
939.055 0.549425
939.091 0.589845
939.127 0.632970
939.163 0.678908
939.199 0.727760
939.235 0.779623
939.272 0.834585
939.308 0.892727
939.344 0.954295
939.380 1.01901
939.416 1.08708
939.452 1.15855
939.488 1.23343
939.524 1.31172
939.560 1.39342
939.597 1.47849
939.633 1.56712
939.669 1.65874
939.741 1.85131
939.813 2.05539
939.885 2.26955
939.958 2.49196
940.030 2.72045
940.174 3.18506
940.326 3.66275
940.402 3.88723
940.478 4.09675
940.562 4.30515
940.646 4.48550
940.703 4.59004
940.760 4.67817
940.801 4.73173
940.843 4.77553
940.894 4.81520
940.945 4.83962
941.000 4.84860
941.024 4.84678
941.075 4.83121
941.127 4.79995
941.170 4.76167
941.249 4.66441
941.317 4.55345
941.385 4.41959
941.472 4.22129
941.558 3.99564
941.637 3.76921
941.716 3.52930
941.874 3.02627
942.032 2.52125
942.111 2.27723
942.190 2.04331
942.269 1.82129
942.309 1.71556
942.348 1.61351
942.388 1.51504
942.427 1.42074
942.467 1.33045
942.506 1.24422
942.550 1.15457
942.593 1.07000
942.636 0.990230
942.679 0.915213
942.722 0.844692
942.765 0.778878
942.808 0.717466
942.851 0.660304
942.895 0.607107
942.938 0.557944
942.981 0.512504
943.024 0.470594
943.067 0.432022
943.110 0.396594
943.153 0.364114
943.196 0.334392
943.240 0.307180
943.283 0.282421
943.369 0.239367
943.455 0.203801
943.541 0.174610
943.628 0.150663
943.714 0.131094
943.800 0.115081
943.886 0.101958
944.001 0.0880013
944.116 0.0771561
944.231 0.0686236
944.346 0.0618084
944.461 0.0562724
944.576 0.0516964
944.806 0.0445658
945.036 0.0392245
945.266 0.0350420
945.496 0.0316620
945.726 0.0288703
946.186 0.0245290
946.646 0.0213273
947.106 0.0188867
947.566 0.0169812
948.371 0.0145194
949.176 0.0127814
949.981 0.0114966
950.786 0.0105173
951.590 0.00975492
952.395 0.00914954
954.005 0.00826410
955.960 0.00754081
957.915 0.00703715
959.870 0.00667361
961.824 0.00639991
965.734 0.00602233
969.643 0.00575801
973.553 0.00556548
977.463 0.00541648
985.282 0.00519528
992.641 0.00504122
1000.00 0.00491802
1011.81 0.00476397
1023.61 0.00464328
1035.42 0.00455314
1047.23 0.00447867
1059.03 0.00442707
1070.84 0.00439035
1082.65 0.00436723
1094.45 0.00435775
1108.72 0.00436805
1122.99 0.00439992
1137.25 0.00445430
1151.52 0.00453380
1165.78 0.00463817
1180.05 0.00478406
1187.18 0.00487620
1194.32 0.00498562
1201.45 0.00511850
1208.58 0.00527967
1216.45 0.00552676
1220.39 0.00569432
1224.32 0.00591255
1228.26 0.00621587
1232.19 0.00666638
1234.16 0.00699068
1236.13 0.00743651
1238.10 0.00807137
1240.07 0.00901306
1241.05 0.00967898
1242.03 0.0105627
1243.02 0.0117635
1244.00 0.0134467
1244.49 0.0145577
1244.98 0.0159267
1245.48 0.0176493
1245.97 0.0198681
1246.46 0.0228054
1246.95 0.0268406
1247.20 0.0294780
1247.44 0.0327306
1247.69 0.0368765
1247.94 0.0423833
1248.20 0.0508209
1248.33 0.0566071
1248.46 0.0638766
1248.59 0.0732850
1248.72 0.0855145
1248.85 0.101527
1248.98 0.122380
1249.11 0.149944
1249.18 0.166912
1249.24 0.185996
1249.31 0.208084
1249.37 0.232823
1249.44 0.260860
1249.50 0.292547
1249.57 0.328834
1249.64 0.369005
1249.70 0.413964
1249.77 0.464097
1249.83 0.520688
1249.90 0.582395
1249.96 0.650376
1250.03 0.724946
1250.08 0.797269
1250.14 0.875214
1250.20 0.958899
1250.26 1.04680
1250.32 1.14204
1250.37 1.24306
1250.43 1.34979
1250.49 1.46006
1250.55 1.57751
1250.60 1.69994
1250.66 1.82694
1250.72 1.95575
1250.83 2.22544
1250.95 2.50375
1251.16 3.02442
1251.27 3.27348
1251.38 3.50321
1251.44 3.61831
1251.50 3.72550
1251.55 3.82380
1251.61 3.91089
1251.69 4.01216
1251.76 4.09309
1251.85 4.15656
1251.90 4.18231
1251.95 4.19745
1252.00 4.20189
1252.01 4.20170
1252.04 4.19920
1252.06 4.19405
1252.11 4.17574
1252.19 4.13226
1252.25 4.08237
1252.31 4.01984
1252.39 3.90592
1252.48 3.77002
1252.53 3.68329
1252.60 3.53900
1252.68 3.38482
1252.75 3.22104
1252.82 3.04986
1253.12 2.32884
1253.20 2.14948
1253.27 1.97679
1253.35 1.80971
1253.42 1.64940
1253.47 1.55153
1253.51 1.45896
1253.56 1.36781
1253.61 1.28209
1253.65 1.19817
1253.70 1.11968
1253.75 1.04326
1253.79 0.972160
1253.84 0.903293
1253.88 0.839554
1253.93 0.778118
1253.98 0.721532
1254.02 0.667250
1254.07 0.617485
1254.12 0.570940
1254.16 0.527499
1254.21 0.486192
1254.26 0.448646
1254.35 0.380897
1254.44 0.323132
1254.53 0.274227
1254.63 0.233088
1254.72 0.198682
1254.81 0.170048
1254.91 0.146549
1255.02 0.123330
1255.13 0.105073
1255.24 0.0904670
1255.35 0.0789700
1255.46 0.0697179
1255.57 0.0623576
1255.80 0.0514647
1256.02 0.0439941
1256.24 0.0385984
1256.47 0.0345037
1256.69 0.0312661
1257.14 0.0264219
1257.58 0.0229496
1258.03 0.0203455
1258.47 0.0183367
1259.27 0.0157207
1260.06 0.0138976
1260.85 0.0125786
1261.64 0.0116019
1262.54 0.0107750
1263.43 0.0101415
1265.21 0.00926289
1267.00 0.00871601
1268.78 0.00836680
1270.56 0.00814286
1272.35 0.00800342
1275.91 0.00788847
1279.28 0.00790979
1282.65 0.00801983
1286.02 0.00819248
1289.39 0.00842530
1292.76 0.00871799
1296.13 0.00907538
1299.50 0.00950529
1302.87 0.0100232
1307.23 0.0108665
1309.41 0.0113798
1311.59 0.0119707
1313.77 0.0126558
1315.95 0.0134568
1318.13 0.0144024
1320.31 0.0155269
1322.49 0.0168851
1324.67 0.0185538
1326.85 0.0206329
1327.94 0.0218710
1329.03 0.0232720
1330.02 0.0247155
1331.01 0.0263493
1332.00 0.0282091
1332.99 0.0303393
1333.98 0.0327958
1334.97 0.0356477
1335.96 0.0389836
1336.95 0.0429262
1337.50 0.0454116
1338.04 0.0481633
1338.59 0.0512204
1339.13 0.0546295
1339.68 0.0584472
1340.22 0.0627422
1340.77 0.0675984
1341.31 0.0731192
1341.83 0.0791365
1342.35 0.0860046
1342.87 0.0939094
1343.39 0.103072
1343.92 0.113800
1344.18 0.119845
1344.44 0.126423
1344.70 0.133602
1344.96 0.141457
1345.22 0.150079
1345.48 0.159574
1345.75 0.170623
1346.02 0.182899
1346.29 0.196702
1346.57 0.212185
1346.84 0.229773
1347.11 0.249727
1347.38 0.272684
1347.66 0.299103
1347.89 0.325517
1348.13 0.355763
1348.24 0.372707
1348.36 0.391007
1348.48 0.410827
1348.60 0.432172
1348.72 0.455642
1348.83 0.481342
1348.95 0.509620
1349.07 0.540628
1349.19 0.575428
1349.30 0.614102
1349.42 0.658175
1349.54 0.707999
1349.61 0.740797
1349.68 0.776010
1349.74 0.814487
1349.81 0.856681
1349.88 0.903120
1349.95 0.954414
1350.02 1.01127
1350.08 1.07449
1350.15 1.14611
1350.22 1.22513
1350.29 1.31377
1350.36 1.41341
1350.42 1.52562
1350.49 1.65217
1350.53 1.72145
1350.56 1.79507
1350.59 1.87333
1350.63 1.95652
1350.68 2.08850
1350.73 2.22989
1350.78 2.38758
1350.83 2.55643
1350.88 2.74460
1350.93 2.94587
1350.98 3.16988
1351.02 3.40911
1351.07 3.67487
1351.12 3.95811
1351.17 4.27205
1351.22 4.60579
1351.27 4.97472
1351.32 5.36579
1351.37 5.79675
1351.42 6.25209
1351.46 6.59828
1351.49 6.95193
1351.52 7.32325
1351.56 7.71275
1351.59 8.12095
1351.63 8.54833
1351.66 8.99535
1351.69 9.46246
1351.73 9.95006
1351.76 10.4585
1351.83 11.5392
1351.90 12.7067
1351.97 13.9621
1352.03 15.3261
1352.10 16.7583
1352.17 18.2759
1352.24 19.8753
1352.31 21.5519
1352.37 23.2995
1352.44 25.1101
1352.51 26.9747
1352.57 28.7127
1352.63 30.4774
1352.77 34.3910
1352.91 38.2623
1353.01 40.9769
1353.10 43.5431
1353.17 45.2147
1353.24 46.7477
1353.31 48.1505
1353.38 49.4074
1353.45 50.5042
1353.51 51.4281
1353.58 52.1203
1353.64 52.6407
1353.71 53.0258
1353.78 53.2010
1353.80 53.2139
1353.84 53.1787
1353.91 52.9218
1353.99 52.4198
1354.07 51.6686
1354.14 50.6989
1354.22 49.4820
1354.29 48.0786
1354.37 46.4943
1354.45 44.7510
1354.57 41.6004
1354.70 38.1929
1354.85 33.8329
1355.00 29.4708
1355.08 27.1079
1355.17 24.8365
1355.25 22.6474
1355.33 20.5568
1355.41 18.7165
1355.49 17.0014
1355.56 15.3921
1355.64 13.8915
1355.68 13.1642
1355.72 12.4834
1355.75 11.8300
1355.79 11.2037
1355.83 10.6043
1355.87 10.0315
1355.91 9.48466
1355.94 8.96340
1355.98 8.45441
1356.02 7.98316
1356.06 7.53562
1356.10 7.11110
1356.13 6.70887
1356.17 6.32819
1356.21 5.96829
1356.25 5.62840
1356.29 5.29953
1356.33 4.99774
1356.36 4.71355
1356.40 4.44618
1356.44 4.19485
1356.48 3.95877
1356.52 3.73720
1356.55 3.52938
1356.59 3.36452
1356.62 3.21322
1356.65 3.06983
1356.68 2.93397
1356.71 2.80126
1356.74 2.67964
1356.77 2.56451
1356.80 2.45555
1356.84 2.34922
1356.87 2.25186
1356.90 2.15977
1356.93 2.07266
1356.96 1.99027
1356.99 1.91234
1357.05 1.76894
1357.12 1.63865
1357.18 1.52395
1357.24 1.41959
1357.30 1.32752
1357.37 1.24351
1357.43 1.16915
1357.49 1.10207
1357.55 1.04141
1357.63 0.973914
1357.70 0.914662
1357.78 0.861038
1357.86 0.813551
1357.93 0.770186
1358.01 0.731432
1358.09 0.696165
1358.16 0.663933
1358.24 0.633980
1358.32 0.606756
1358.39 0.581583
1358.47 0.558226
1358.62 0.515935
1358.77 0.479154
1358.89 0.453581
1359.01 0.430230
1359.13 0.408819
1359.24 0.389114
1359.36 0.370923
1359.48 0.354080
1359.72 0.324017
1359.95 0.297765
1360.19 0.274859
1360.42 0.254570
1360.66 0.236644
1360.96 0.216222
1361.27 0.198476
1361.57 0.182949
1361.88 0.169279
1362.18 0.157178
1362.49 0.146411
1362.79 0.136786
1363.10 0.128145
1363.51 0.117715
1363.93 0.108606
1364.35 0.100601
1364.76 0.0935278
1365.18 0.0872450
1365.59 0.0816374
1366.01 0.0766106
1366.42 0.0720970
1367.04 0.0662297
1367.65 0.0611511
1368.26 0.0567194
1368.87 0.0528297
1369.48 0.0493973
1370.09 0.0463537
1370.70 0.0436426
1371.31 0.0412176
1372.14 0.0383030
1372.97 0.0357712
1373.80 0.0335603
1374.63 0.0316214
1375.46 0.0299063
1376.30 0.0283829
1377.96 0.0258123
1379.18 0.0242528
1380.40 0.0229163
1381.62 0.0217632
1382.84 0.0207633
1385.28 0.0191313
1387.72 0.0178807
1390.16 0.0169094
1392.60 0.0161473
1395.04 0.0155513
1397.48 0.0150869
1399.92 0.0147284
1402.36 0.0144565
1404.80 0.0142566
1407.24 0.0141201
1410.79 0.0140109
1414.34 0.0139890
1419.22 0.0140824
1424.10 0.0142943
1428.98 0.0146111
1433.86 0.0150253
1438.74 0.0155307
1443.62 0.0161299
1448.50 0.0168252
1453.38 0.0176217
1458.26 0.0185316
1463.14 0.0195637
1468.02 0.0207355
1472.90 0.0220689
1477.78 0.0235846
1482.66 0.0253201
1485.10 0.0262797
1487.54 0.0273130
1489.98 0.0284212
1492.42 0.0296118
1495.31 0.0311441
1498.19 0.0328244
1501.07 0.0346532
1503.96 0.0366863
1506.84 0.0389384
1509.72 0.0414412
1512.61 0.0442345
1515.49 0.0473653
1517.93 0.0503229
1520.37 0.0536083
1522.81 0.0572737
1525.25 0.0613824
1526.47 0.0636266
1527.69 0.0660119
1528.91 0.0685509
1530.13 0.0712576
1531.35 0.0741477
1532.57 0.0772388
1533.79 0.0805507
1535.01 0.0841056
1536.45 0.0886548
1537.90 0.0936160
1539.34 0.0990402
1540.78 0.105022
1542.22 0.111634
1543.66 0.118962
1545.11 0.127114
1546.55 0.136224
1547.77 0.144799
1548.99 0.154292
1550.21 0.164844
1551.43 0.176623
1552.04 0.183034
1552.65 0.189832
1553.26 0.197049
1553.87 0.204721
1554.48 0.212888
1555.09 0.221595
1555.70 0.230891
1556.31 0.240831
1557.08 0.254523
1557.86 0.269478
1558.64 0.285902
1559.41 0.303960
1560.19 0.323954
1560.97 0.346122
1561.74 0.370822
1562.13 0.384242
1562.52 0.398450
1563.07 0.420269
1563.35 0.431918
1563.63 0.444041
1563.91 0.456756
1564.18 0.470006
1564.46 0.483874
1564.74 0.498398
1565.04 0.515204
1565.35 0.532921
1565.65 0.551621
1565.96 0.571377
1566.26 0.592273
1566.57 0.614397
1566.87 0.637849
1567.18 0.662654
1567.48 0.689096
1567.63 0.702989
1567.79 0.717230
1567.94 0.732027
1568.09 0.747205
1568.24 0.762987
1568.40 0.779187
1568.55 0.796044
1568.70 0.813361
1568.85 0.831394
1569.01 0.849935
1569.16 0.869258
1569.31 0.889142
1569.46 0.909882
1569.62 0.931243
1569.77 0.953544
1569.92 0.976689
1570.08 1.00072
1570.23 1.02552
1570.38 1.05146
1570.53 1.07825
1570.69 1.10631
1570.84 1.13532
1570.99 1.16573
1571.14 1.19722
1571.30 1.23027
1571.45 1.26452
1571.60 1.30051
1571.75 1.33787
1571.91 1.37718
1572.06 1.41803
1572.28 1.48115
1572.50 1.54873
1572.61 1.58433
1572.72 1.62121
1572.83 1.65943
1572.94 1.69871
1573.06 1.73982
1573.17 1.78248
1573.28 1.82679
1573.39 1.87283
1573.50 1.92069
1573.61 1.97046
1573.72 2.02226
1573.83 2.07570
1573.98 2.15374
1574.14 2.23586
1574.29 2.32351
1574.44 2.41597
1574.59 2.51491
1574.75 2.61954
1574.90 2.73182
1575.05 2.85091
1575.20 2.97909
1575.36 3.11547
1575.51 3.26276
1575.66 3.42003
1575.81 3.59051
1575.97 3.77325
1576.12 3.97216
1576.27 4.18630
1576.42 4.42045
1576.58 4.67377
1576.65 4.81076
1576.73 4.95216
1576.81 5.10008
1576.88 5.25494
1576.96 5.41936
1577.03 5.58956
1577.11 5.76812
1577.19 5.95561
1577.26 6.15527
1577.34 6.36257
1577.42 6.58073
1577.49 6.81049
1577.57 7.05594
1577.64 7.31156
1577.72 7.58140
1577.80 7.86645
1577.87 8.17186
1577.95 8.49086
1578.03 8.82854
1578.10 9.18621
1578.18 9.57040
1578.25 9.97264
1578.33 10.3994
1578.41 10.8522
1578.48 11.3394
1578.56 11.8503
1578.64 12.3927
1578.71 12.9688
1578.77 13.4406
1578.83 13.9348
1578.89 14.4524
1578.95 14.9946
1579.01 15.5622
1579.07 16.1563
1579.12 16.7779
1579.18 17.4280
1579.24 18.1074
1579.30 18.8173
1579.36 19.5583
1579.42 20.3314
1579.48 21.1373
1579.54 21.9766
1579.65 23.7424
1579.73 24.9792
1579.81 26.2587
1579.88 27.5967
1579.96 28.9926
1580.04 30.4456
1580.11 31.9542
1580.19 33.5161
1580.26 35.1287
1580.42 38.5140
1580.57 42.0525
1580.72 45.6951
1580.87 49.3565
1581.05 53.5790
1581.23 57.6369
1581.41 61.3947
1581.49 63.1273
1581.58 64.7147
1581.67 66.1925
1581.76 67.5072
1581.85 68.6445
1581.94 69.5822
1582.03 70.3306
1582.12 70.8696
1582.21 71.1930
1582.30 71.2968
1582.37 71.2229
1582.49 70.8034
1582.61 70.0209
1582.72 68.8908
1582.84 67.4350
1582.96 65.6811
1583.07 63.6612
1583.19 61.4115
1583.31 58.9918
1583.47 55.4170
1583.63 51.6594
1583.95 43.9758
1584.20 38.2044
1584.32 35.4612
1584.44 32.8412
1584.57 30.3589
1584.69 28.0244
1584.82 25.8433
1584.94 23.8175
1585.01 22.7571
1585.08 21.7581
1585.14 20.8042
1585.21 19.8944
1585.28 19.0151
1585.35 18.1906
1585.42 17.4065
1585.49 16.6613
1585.55 15.9436
1585.62 15.2726
1585.69 14.6360
1585.76 14.0324
1585.83 13.4519
1585.90 12.9100
1585.96 12.3965
1586.03 11.9098
1586.10 11.4421
1586.17 11.0054
1586.24 10.5915
1586.30 10.1991
1586.44 9.46892
1586.58 8.81639
1586.71 8.22361
1586.85 7.69190
1586.99 7.21021
1587.12 6.77283
1587.24 6.42532
1587.36 6.10446
1587.48 5.80766
1587.59 5.53485
1587.71 5.27935
1587.83 5.04173
1587.95 4.82036
1588.06 4.61549
1588.18 4.42232
1588.30 4.24150
1588.42 4.07199
1588.54 3.91417
1588.65 3.76450
1588.77 3.62361
1588.89 3.49083
1589.01 3.36657
1589.14 3.22970
1589.28 3.10229
1589.42 2.98178
1589.55 2.86929
1589.69 2.76261
1589.83 2.66278
1589.96 2.56789
1590.10 2.47888
1590.37 2.31439
1590.64 2.16666
1590.92 2.03348
1591.19 1.91344
1591.38 1.83781
1591.56 1.76692
1591.75 1.70038
1591.93 1.63785
1592.12 1.57902
1592.31 1.52360
1592.68 1.42199
1593.05 1.33124
1593.42 1.24986
1593.79 1.17663
1594.17 1.11052
1594.44 1.06602
1594.71 1.02459
1594.98 0.985962
1595.26 0.949905
1595.53 0.916206
1595.80 0.884676
1596.08 0.855145
1596.35 0.827556
1596.89 0.777163
1597.44 0.732723
1597.99 0.693280
1598.53 0.658324
1598.88 0.638055
1599.23 0.619290
1599.57 0.601860
1599.92 0.585668
1600.61 0.556660
1601.31 0.531664
1602.00 0.510148
1602.70 0.491746
1603.39 0.476086
1604.08 0.462905
1604.58 0.454885
1605.08 0.447961
1605.57 0.442076
1606.07 0.437182
1606.56 0.433240
1607.06 0.430216
1607.56 0.428086
1608.05 0.426828
1608.85 0.426602
1609.64 0.428558
1610.43 0.432712
1611.23 0.439105
1612.02 0.447848
1612.81 0.459052
1613.61 0.472927
1614.40 0.489673
1615.10 0.506947
1615.79 0.526862
1616.49 0.549767
1617.18 0.575969
1617.87 0.606003
1618.57 0.640325
1618.92 0.659303
1619.26 0.679611
1619.61 0.701350
1619.96 0.724633
1620.50 0.764702
1621.05 0.809470
1621.59 0.859606
1622.14 0.915798
1622.41 0.946545
1622.69 0.979206
1622.96 1.01393
1623.23 1.05089
1623.50 1.09025
1623.78 1.13223
1624.05 1.17705
1624.32 1.22477
1624.69 1.29550
1625.07 1.37326
1625.44 1.45899
1625.81 1.55379
1626.18 1.65895
1626.37 1.71588
1626.55 1.77600
1626.74 1.83954
1626.93 1.90675
1627.11 1.97793
1627.30 2.05337
1627.57 2.17254
1627.84 2.30284
1628.12 2.44565
1628.39 2.60198
1628.66 2.77481
1628.80 2.86752
1628.93 2.96502
1629.07 3.06840
1629.21 3.17651
1629.34 3.29046
1629.48 3.41065
1629.62 3.53848
1629.75 3.67257
1629.89 3.81541
1630.03 3.96548
1630.16 4.12561
1630.30 4.29411
1630.44 4.47419
1630.57 4.66399
1630.71 4.86715
1630.84 5.08159
1630.98 5.31144
1631.12 5.55441
1631.25 5.81516
1631.39 6.09110
1631.53 6.38530
1631.66 6.69910
1631.81 7.06701
1631.96 7.46199
1632.11 7.88597
1632.26 8.33777
1632.41 8.82545
1632.56 9.34797
1632.70 9.90710
1632.85 10.5003
1632.99 11.0842
1633.13 11.6975
1633.26 12.3498
1633.40 13.0315
1633.54 13.7520
1633.67 14.4998
1633.81 15.2783
1633.94 16.0849
1634.14 17.2965
1634.34 18.5405
1634.73 21.0733
1634.92 22.3176
1635.12 23.5124
1635.32 24.6290
1635.51 25.6382
1635.64 26.2082
1635.76 26.7131
1635.88 27.1548
1636.01 27.5209
1636.13 27.8124
1636.25 28.0208
1636.38 28.1469
1636.50 28.1868
1636.64 28.1268
1636.76 27.9955
1636.87 27.7920
1636.99 27.5183
1637.10 27.1810
1637.22 26.7779
1637.33 26.3160
1637.56 25.2410
1637.79 23.9903
1638.02 22.6210
1638.25 21.1679
1638.48 19.6869
1638.80 17.6252
1639.12 15.6539
1639.28 14.7180
1639.44 13.8294
1639.60 12.9803
1639.76 12.1829
1639.92 11.4645
1640.07 10.7890
1640.22 10.1558
1640.37 9.56354
1640.53 9.01065
1640.68 8.49529
1640.83 8.01544
1640.99 7.57180
1641.13 7.19055
1641.26 6.83632
1641.40 6.50476
1641.54 6.19434
1641.68 5.90364
1641.82 5.63129
1641.96 5.37599
1642.10 5.13653
1642.24 4.91178
1642.38 4.70068
1642.52 4.50225
1642.65 4.31559
1642.79 4.13985
1642.93 3.97425
1643.07 3.81809
1643.21 3.67069
1643.36 3.51786
1643.52 3.37417
1643.67 3.23894
1643.82 3.11154
1643.98 2.99141
1644.13 2.87801
1644.28 2.77087
1644.43 2.66956
1644.74 2.48280
1645.05 2.31490
1645.35 2.16345
1645.66 2.02639
1645.96 1.90198
1646.27 1.78875
1646.58 1.68539
1646.88 1.59081
1647.19 1.50405
1647.49 1.42428
1647.80 1.35077
1648.11 1.28309
1648.41 1.22025
1648.72 1.16198
1649.02 1.10784
1649.33 1.05745
1649.64 1.01047
1649.94 0.966607
1650.25 0.925583
1650.55 0.887164
1650.86 0.851134
1651.17 0.817302
1651.47 0.785492
1651.78 0.755548
1652.08 0.727325
1652.39 0.700694
1652.70 0.675538
1653.00 0.651826
1653.61 0.607962
1654.22 0.568504
1654.84 0.532879
1655.45 0.500605
1656.06 0.471272
1656.67 0.444532
1657.28 0.420088
1657.90 0.397718
1658.37 0.381658
1658.84 0.366597
1659.31 0.352455
1659.79 0.339159
1660.26 0.326640
1660.73 0.314833
1661.68 0.293158
1662.62 0.273714
1663.57 0.256248
1664.52 0.240473
1665.46 0.226205
1666.07 0.217673
1666.68 0.209645
1667.30 0.202081
1667.91 0.194946
1669.13 0.181839
1670.36 0.170109
1671.58 0.159550
1672.80 0.150019
1674.03 0.141386
1675.25 0.133545
1676.09 0.128595
1676.92 0.123948
1677.75 0.119567
1678.59 0.115444
1680.26 0.107879
1681.93 0.101137
1683.59 0.0950690
1685.26 0.0895867
1686.93 0.0846281
1688.60 0.0801326
1689.82 0.0770943
1691.05 0.0742552
1692.27 0.0715985
1693.50 0.0691113
1694.72 0.0667760
1695.94 0.0645826
1698.39 0.0605806
1700.84 0.0570267
1703.29 0.0538622
1705.73 0.0510333
1708.18 0.0484999
1709.85 0.0469222
1711.52 0.0454550
1714.86 0.0428185
1718.19 0.0405299
1721.53 0.0385578
1724.87 0.0368328
1728.21 0.0353371
1731.54 0.0340475
1734.88 0.0329440
1738.00 0.0320671
1741.11 0.0313269
1744.23 0.0307142
1747.34 0.0302221
1750.46 0.0298456
1753.57 0.0295817
1756.69 0.0294290
1759.80 0.0293878
1763.81 0.0295011
1767.81 0.0298082
1771.82 0.0303205
1775.82 0.0310551
1779.83 0.0320360
1783.83 0.0332929
1785.83 0.0340287
1787.84 0.0348603
1789.84 0.0357881
1791.84 0.0368181
1794.29 0.0382314
1796.74 0.0398331
1799.18 0.0416494
1801.63 0.0437084
1804.08 0.0460476
1806.53 0.0487082
1808.97 0.0517447
1811.42 0.0552188
1813.31 0.0582552
1815.20 0.0616430
1817.09 0.0654364
1818.99 0.0696982
1820.88 0.0745017
1822.77 0.0799192
1823.71 0.0829048
1824.66 0.0860951
1825.61 0.0895119
1826.55 0.0931669
1827.77 0.0982971
1829.00 0.103927
1830.22 0.110122
1831.45 0.116953
1832.67 0.124522
1833.89 0.132931
1835.12 0.142307
1835.73 0.147404
1836.34 0.152793
1837.45 0.163462
1838.57 0.175364
1839.12 0.181854
1839.68 0.188720
1840.23 0.196007
1840.79 0.203748
1841.35 0.211997
1841.90 0.220766
1842.46 0.230116
1843.02 0.240096
1843.57 0.250783
1844.13 0.262204
1844.68 0.274455
1845.24 0.287625
1845.69 0.298892
1846.13 0.310864
1846.58 0.323599
1847.02 0.337161
1847.47 0.351624
1847.91 0.367067
1848.36 0.383581
1848.80 0.401267
1849.41 0.427715
1850.02 0.456937
1850.64 0.489336
1851.25 0.525391
1851.55 0.544963
1851.86 0.565672
1852.17 0.587607
1852.47 0.610865
1852.78 0.635557
1853.08 0.661800
1853.39 0.689728
1853.70 0.719389
1854.06 0.757184
1854.42 0.798086
1854.78 0.842451
1855.14 0.890548
1855.50 0.943111
1855.87 1.00039
1856.05 1.03112
1856.23 1.06332
1856.41 1.09707
1856.59 1.13228
1856.89 1.19621
1857.20 1.26580
1857.35 1.30293
1857.51 1.34174
1857.66 1.38233
1857.81 1.42483
1857.97 1.46933
1858.12 1.51599
1858.27 1.56493
1858.42 1.61632
1858.58 1.67032
1858.73 1.72710
1858.88 1.78688
1859.04 1.84943
1859.16 1.90384
1859.29 1.96026
1859.41 2.01926
1859.54 2.08101
1859.66 2.14621
1859.79 2.21401
1859.91 2.28512
1860.04 2.35977
1860.16 2.43884
1860.29 2.52133
1860.41 2.60816
1860.54 2.69962
1860.66 2.79606
1860.79 2.89785
1860.91 3.00540
1861.04 3.11916
1861.19 3.26756
1861.34 3.42699
1861.50 3.59859
1861.65 3.78362
1861.80 3.98352
1861.96 4.19992
1862.11 4.43467
1862.26 4.68988
1862.42 4.96792
1862.57 5.27152
1862.65 5.43493
1862.72 5.60375
1862.80 5.78287
1862.87 5.96812
1862.95 6.16488
1863.03 6.36858
1863.10 6.58517
1863.18 6.80961
1863.26 7.04846
1863.33 7.29621
1863.41 7.55656
1863.49 7.83028
1863.56 8.12201
1863.64 8.42501
1863.72 8.74811
1863.79 9.08382
1863.87 9.44193
1863.94 9.81407
1864.02 10.2111
1864.10 10.6236
1864.17 11.0635
1864.25 11.5205
1864.33 12.0076
1864.40 12.5132
1864.48 13.0517
1864.56 13.6100
1864.63 14.2038
1864.71 14.8186
1864.78 15.3850
1864.84 15.9657
1864.97 17.1969
1865.11 18.5230
1865.24 19.9456
1865.37 21.4646
1865.50 23.0776
1865.63 24.7805
1865.77 26.5664
1865.92 28.7275
1866.07 30.9673
1866.23 33.2608
1866.38 35.5775
1866.61 39.0401
1866.84 42.3232
1866.96 43.8700
1867.07 45.3061
1867.19 46.6268
1867.30 47.8143
1867.48 49.3294
1867.56 49.9444
1867.65 50.4487
1867.74 50.8495
1867.83 51.1341
1867.91 51.3067
1868.00 51.3617
1868.09 51.2987
1868.23 50.9430
1868.38 50.2872
1868.52 49.3452
1868.66 48.1384
1868.81 46.6935
1868.95 45.0416
1869.09 43.2165
1869.23 41.2542
1869.44 38.2734
1869.64 35.2029
1869.85 32.1063
1870.05 29.0937
1870.25 26.3234
1870.44 23.7173
1870.54 22.4851
1870.64 21.3034
1870.74 20.1738
1870.84 19.1079
1871.00 17.4537
1871.08 16.6847
1871.16 15.9503
1871.24 15.2497
1871.32 14.5823
1871.40 13.9471
1871.48 13.3430
1871.56 12.7621
1871.64 12.2175
1871.72 11.7007
1871.80 11.2105
1871.88 10.7458
1871.96 10.3053
1872.04 9.88788
1872.12 9.49233
1872.22 9.03594
1872.31 8.60867
1872.41 8.20857
1872.51 7.83378
1872.61 7.48255
1872.71 7.15322
1872.80 6.84424
1872.90 6.55415
1873.00 6.28160
1873.10 6.02532
1873.20 5.78414
1873.29 5.55698
1873.39 5.34284
1873.49 5.14078
1873.59 4.94996
1873.68 4.77137
1873.88 4.43892
1874.08 4.14028
1874.27 3.87107
1874.47 3.62758
1874.66 3.40663
1874.86 3.20554
1875.06 3.02197
1875.25 2.85476
1875.44 2.70728
1875.63 2.57110
1875.81 2.44507
1876.00 2.32820
1876.19 2.21961
1876.37 2.11853
1876.56 2.02429
1876.75 1.93671
1876.93 1.85434
1877.12 1.77716
1877.31 1.70475
1877.49 1.63673
1877.68 1.57273
1877.87 1.51246
1878.06 1.45562
1878.24 1.40224
1878.44 1.34913
1878.63 1.29902
1878.83 1.25167
1879.03 1.20690
1879.42 1.12434
1879.81 1.05024
1880.20 0.983136
1880.59 0.922482
1880.98 0.867199
1881.37 0.816920
1881.62 0.787060
1881.87 0.758939
1882.37 0.707099
1882.87 0.660383
1883.37 0.618302
1883.87 0.580109
1884.37 0.545468
1884.86 0.513823
1885.36 0.484950
1885.75 0.463928
1886.15 0.444269
1886.54 0.425859
1886.93 0.408641
1887.32 0.392433
1887.71 0.377198
1888.11 0.362862
1888.50 0.349389
1888.89 0.336650
1889.28 0.324623
1890.06 0.302540
1890.85 0.282755
1891.63 0.264977
1892.41 0.248947
1893.20 0.234507
1893.98 0.221473
1894.76 0.209716
1895.55 0.199125
1896.33 0.189665
1897.11 0.181299
1897.90 0.174064
1898.61 0.168563
1899.32 0.164327
1900.03 0.161826
1900.39 0.161558
1900.74 0.162355
1901.10 0.164931
1901.28 0.167311
1901.46 0.170807
1901.63 0.175879
1901.81 0.183176
1901.99 0.193602
1902.17 0.208388
1902.35 0.229168
1902.44 0.242444
1902.52 0.258047
1902.61 0.276322
1902.70 0.297646
1902.79 0.322431
1902.88 0.351115
1902.97 0.384165
1903.06 0.422070
1903.15 0.465332
1903.24 0.514460
1903.33 0.569960
1903.41 0.632320
1903.50 0.702000
1903.59 0.779413
1903.66 0.839081
1903.72 0.901857
1903.78 0.969844
1903.84 1.04094
1903.91 1.11745
1903.97 1.19694
1904.03 1.28055
1904.09 1.36821
1904.15 1.46130
1904.22 1.55670
1904.28 1.65568
1904.34 1.75798
1904.47 1.97312
1904.59 2.19585
1904.91 2.78888
1905.07 3.07488
1905.15 3.21074
1905.23 3.33995
1905.31 3.46260
1905.39 3.57429
1905.47 3.67533
1905.55 3.76451
1905.64 3.85191
1905.74 3.92043
1905.84 3.97097
1905.94 3.99993
1906.00 4.00342
1906.01 4.00326
1906.04 4.00156
1906.06 3.99821
1906.11 3.98652
1906.23 3.93843
1906.30 3.89347
1906.37 3.83740
1906.45 3.75513
1906.53 3.67047
1906.60 3.57539
1906.69 3.45482
1906.79 3.30592
1906.88 3.14735
1906.98 2.97828
1907.07 2.80463
1907.35 2.28613
1907.49 2.03214
1907.63 1.78836
1907.70 1.67085
1907.77 1.55904
1907.84 1.45006
1907.91 1.34731
1907.98 1.24803
1908.05 1.15522
1908.12 1.06629
1908.19 0.983813
1908.28 0.876570
1908.38 0.780281
1908.48 0.692632
1908.57 0.615010
1908.67 0.545281
1908.77 0.484308
1908.86 0.430196
1908.96 0.383421
1909.06 0.342359
1909.15 0.307226
1909.25 0.276672
1909.35 0.250753
1909.44 0.228383
1909.54 0.209529
1909.63 0.193495
1909.73 0.179882
1909.92 0.158442
1910.12 0.143001
1910.31 0.131769
1910.50 0.123490
1910.69 0.117168
1910.89 0.112223
1911.27 0.104919
1911.64 0.0998348
1912.00 0.0957788
1912.73 0.0894277
1913.46 0.0844868
1914.19 0.0804129
1914.91 0.0769212
1915.64 0.0738587
1917.10 0.0686347
1917.96 0.0659741
1918.81 0.0635455
1920.53 0.0592238
1922.24 0.0554577
1923.95 0.0521318
1925.67 0.0491592
1927.38 0.0464825
1929.10 0.0440570
1930.81 0.0418494
1933.55 0.0386990
1936.29 0.0359457
1939.03 0.0335301
1941.78 0.0313919
1944.52 0.0294827
1947.26 0.0277784
1950.00 0.0262525
1952.74 0.0248839
1955.83 0.0235098
1958.91 0.0222935
1962.00 0.0212219
1965.08 0.0202884
1968.17 0.0194937
1971.25 0.0188495
1974.34 0.0183901
1977.42 0.0182140
1978.88 0.0182799
1980.34 0.0184939
1981.79 0.0189281
1983.25 0.0197092
1984.71 0.0210730
1985.43 0.0221137
1986.16 0.0235384
1986.89 0.0255545
1987.62 0.0285212
1987.98 0.0305779
1988.35 0.0332543
1988.71 0.0369343
1989.08 0.0424168
1989.26 0.0463344
1989.44 0.0514409
1989.62 0.0582660
1989.80 0.0675294
1989.99 0.0802243
1990.17 0.0976879
1990.35 0.121672
1990.44 0.136785
1990.53 0.154400
1990.62 0.175119
1990.72 0.198880
1990.81 0.226310
1990.90 0.257851
1990.99 0.293967
1991.08 0.335134
1991.17 0.381836
1991.26 0.434555
1991.35 0.493756
1991.44 0.559878
1991.53 0.633318
1991.63 0.714414
1991.72 0.803431
1991.81 0.900540
1991.90 1.00581
1991.99 1.11916
1992.06 1.20769
1992.12 1.30035
1992.19 1.39699
1992.26 1.49735
1992.39 1.70809
1992.52 1.92799
1992.79 2.38808
1992.93 2.61710
1993.06 2.83656
1993.16 2.99600
1993.26 3.14490
1993.37 3.28073
1993.47 3.40112
1993.58 3.51293
1993.69 3.60099
1993.75 3.63713
1993.81 3.66589
1993.92 3.69934
1994.00 3.70639
1994.01 3.70631
1994.03 3.70503
1994.06 3.70223
1994.11 3.69209
1994.17 3.67291
1994.23 3.64586
1994.32 3.58951
1994.36 3.56427
1994.43 3.50606
1994.50 3.43264
1994.58 3.35055
1994.65 3.25839
1994.73 3.15948
1994.81 3.03579
1994.90 2.90414
1995.07 2.62315
1995.41 2.03272
1995.52 1.85725
1995.62 1.68848
1995.72 1.52630
1995.83 1.37203
1995.93 1.22535
1996.03 1.08982
1996.14 0.964459
1996.24 0.849498
1996.34 0.743978
1996.45 0.649740
1996.55 0.565372
1996.65 0.490399
1996.76 0.424250
1996.86 0.366285
1996.96 0.315824
1997.06 0.272169
1997.20 0.223135
1997.34 0.183454
1997.48 0.151619
1997.62 0.126433
1997.75 0.106334
1997.89 0.0905938
1998.03 0.0781158
1998.17 0.0683691
1998.30 0.0606264
1998.44 0.0544964
1998.72 0.0456945
1998.99 0.0398415
1999.27 0.0357318
1999.63 0.0318219
2000.00 0.0289681
2000.73 0.0249852
2001.47 0.0223049
2002.20 0.0203766
2002.93 0.0189327
2004.40 0.0169113
2005.87 0.0155640
2007.33 0.0146039
2008.80 0.0138834
2011.73 0.0128602
2015.48 0.0119880
2019.23 0.0113621
2022.98 0.0108704
2026.73 0.0104658
2034.22 0.00982588
2041.72 0.00931923
2048.89 0.00892793
2056.06 0.00860218
2063.23 0.00833063
2070.40 0.00810594
2077.57 0.00792027
2084.74 0.00777168
2091.91 0.00765705
2099.08 0.00757476
2109.51 0.00751683
2120.91 0.00755323
2126.62 0.00762692
2132.32 0.00775983
2138.02 0.00799255
2140.88 0.00816711
2143.73 0.00842268
2146.58 0.00875253
2149.43 0.00928190
2152.28 0.0101543
2153.71 0.0108009
2155.13 0.0117037
2156.11 0.0125594
2157.09 0.0136997
2158.07 0.0152609
2159.04 0.0174926
2159.70 0.0195886
2160.35 0.0224791
2161.00 0.0267265
2161.33 0.0297480
2161.65 0.0338274
2161.98 0.0397554
2162.14 0.0438268
2162.30 0.0489904
2162.47 0.0556321
2162.63 0.0642671
2162.79 0.0755731
2162.96 0.0904249
2163.12 0.109929
2163.28 0.135455
2163.44 0.168656
2163.53 0.188861
2163.61 0.211472
2163.69 0.237333
2163.77 0.266110
2163.85 0.298825
2163.93 0.334994
2164.02 0.375835
2164.10 0.420669
2164.18 0.470278
2164.26 0.524960
2164.35 0.589662
2164.43 0.660852
2164.52 0.738801
2164.61 0.822706
2164.69 0.914664
2164.78 1.01263
2164.87 1.11886
2164.95 1.23079
2165.04 1.35079
2165.13 1.47726
2165.21 1.60972
2165.30 1.74595
2165.47 2.03292
2165.64 2.33089
2165.80 2.59630
2165.95 2.85593
2166.10 3.10192
2166.26 3.32482
2166.33 3.42709
2166.41 3.51977
2166.49 3.60443
2166.56 3.67807
2166.65 3.75304
2166.74 3.81095
2166.86 3.85853
2166.97 3.87994
2167.00 3.88107
2167.01 3.88096
2167.04 3.87952
2167.06 3.87652
2167.12 3.86552
2167.21 3.83130
2167.29 3.79158
2167.36 3.74157
2167.47 3.64403
2167.59 3.52507
2167.71 3.37444
2167.83 3.20425
2167.90 3.09989
2168.04 2.87872
2168.55 1.98900
2168.68 1.77371
2168.81 1.56842
2168.88 1.47032
2168.94 1.37557
2169.01 1.28438
2169.07 1.19823
2169.15 1.09828
2169.23 1.00401
2169.31 0.915499
2169.39 0.832758
2169.46 0.755738
2169.54 0.684343
2169.62 0.618429
2169.70 0.558560
2169.77 0.502971
2169.85 0.452235
2169.93 0.406098
2170.01 0.364798
2170.09 0.326989
2170.16 0.292953
2170.24 0.262410
2170.32 0.235414
2170.47 0.189271
2170.63 0.152910
2170.79 0.124507
2170.94 0.102598
2171.10 0.0855601
2171.25 0.0725086
2171.41 0.0623748
2171.56 0.0545783
2171.77 0.0467273
2171.98 0.0409906
2172.19 0.0366922
2172.39 0.0333913
2172.81 0.0286116
2173.22 0.0252785
2173.64 0.0227815
2174.05 0.0208267
2174.88 0.0179628
2175.61 0.0161929
2176.34 0.0148641
2177.79 0.0130316
2179.24 0.0118623
2180.70 0.0110573
2182.15 0.0104820
2183.60 0.0100649
2186.51 0.00952554
2189.41 0.00922222
2192.32 0.00905055
2198.13 0.00890001
2204.22 0.00891528
2210.30 0.00902526
2216.39 0.00919858
2222.48 0.00942167
2228.57 0.00968701
2234.65 0.00999361
2240.74 0.0103413
2246.83 0.0107313
2252.92 0.0111680
2259.01 0.0116541
2265.09 0.0121955
2271.18 0.0127990
2277.27 0.0134707
2283.36 0.0142216
2289.45 0.0150618
2295.53 0.0160032
2301.34 0.0170137
2307.15 0.0181480
2312.97 0.0194254
2318.78 0.0208740
2324.59 0.0225215
2330.40 0.0244021
2336.21 0.0265677
2339.12 0.0277698
2342.02 0.0290592
2345.62 0.0308267
2349.22 0.0327580
2352.81 0.0348863
2356.41 0.0372445
2360.01 0.0398840
2363.60 0.0428346
2367.20 0.0461476
2370.80 0.0498847
2374.12 0.0537765
2377.44 0.0581645
2379.10 0.0605734
2380.76 0.0631398
2382.42 0.0658794
2384.08 0.0688081
2386.43 0.0733184
2388.79 0.0783006
2391.14 0.0838250
2393.49 0.0899729
2395.84 0.0968356
2397.02 0.100561
2398.19 0.104506
2399.37 0.108703
2400.55 0.113171
2401.72 0.117928
2402.90 0.122997
2404.42 0.130066
2405.94 0.137772
2407.46 0.146194
2408.98 0.155416
2410.51 0.165557
2412.03 0.176735
2413.55 0.189095
2415.07 0.202799
2416.39 0.215893
2417.70 0.230293
2419.02 0.246201
2419.67 0.254775
2420.33 0.263806
2420.99 0.273341
2421.64 0.283384
2422.30 0.293986
2422.96 0.305186
2423.62 0.317051
2424.27 0.329599
2424.93 0.342909
2425.59 0.357046
2426.35 0.374547
2427.11 0.393366
2427.87 0.413634
2428.63 0.435497
2429.39 0.459127
2430.15 0.484713
2430.91 0.512474
2431.68 0.542660
2432.44 0.575556
2433.20 0.611487
2433.96 0.650830
2434.34 0.671943
2434.72 0.694020
2435.10 0.717242
2435.48 0.741559
2435.86 0.767175
2436.24 0.794035
2436.62 0.822372
2437.00 0.852131
2437.38 0.883573
2437.76 0.916647
2438.09 0.946757
2438.42 0.978326
2438.75 1.01145
2439.08 1.04610
2439.41 1.08262
2439.74 1.12088
2440.06 1.16124
2440.39 1.20359
2440.72 1.24832
2441.05 1.29532
2441.38 1.34503
2441.71 1.39733
2442.04 1.45274
2442.36 1.51113
2442.69 1.57308
2443.02 1.63846
2443.40 1.71929
2443.78 1.80556
2444.16 1.89820
2444.54 1.99725
2444.92 2.10379
2445.30 2.21788
2445.68 2.34044
2446.06 2.47216
2446.44 2.61419
2446.83 2.76700
2447.21 2.93141
2447.59 3.10779
2447.97 3.29795
2448.35 3.50174
2448.73 3.72101
2449.11 3.95532
2449.56 4.25718
2450.02 4.58198
2450.47 4.93104
2450.93 5.30185
2451.38 5.69388
2451.84 6.10185
2452.29 6.52231
2452.74 6.94632
2453.21 7.38042
2453.68 7.79691
2454.15 8.18406
2454.62 8.52594
2455.09 8.80987
2455.33 8.92573
2455.56 9.02191
2455.80 9.09806
2456.03 9.15278
2456.27 9.18537
2456.50 9.19540
2456.88 9.16449
2457.18 9.09718
2457.49 8.99397
2457.79 8.85683
2458.10 8.68858
2458.40 8.49181
2458.71 8.27148
2459.01 8.03086
2459.32 7.77393
2459.93 7.22565
2460.54 6.65725
2461.15 6.09176
2461.76 5.54706
2462.21 5.16741
2462.65 4.80922
2463.10 4.47325
2463.55 4.16018
2464.00 3.86929
2464.44 3.60125
2464.89 3.35439
2465.34 3.12747
2465.68 2.96829
2466.01 2.81954
2466.35 2.67972
2466.69 2.54907
2467.03 2.42624
2467.36 2.31139
2467.70 2.20365
2468.04 2.10253
2468.37 2.00730
2468.71 1.91809
2469.05 1.83422
2469.39 1.75532
2469.72 1.68083
2470.06 1.61086
2470.40 1.54491
2470.73 1.48268
2471.09 1.42105
2471.44 1.36314
2471.80 1.30837
2472.15 1.25682
2472.50 1.20798
2472.86 1.16195
2473.21 1.11838
2473.56 1.07713
2474.27 1.00085
2474.98 0.932137
2475.68 0.870059
2476.39 0.813891
2477.10 0.762789
2477.80 0.716242
2478.51 0.673739
2479.22 0.634889
2479.92 0.599196
2480.63 0.566383
2481.34 0.536160
2482.04 0.508309
2482.69 0.484776
2483.33 0.462859
2483.97 0.442345
2484.61 0.423169
2485.26 0.405163
2485.90 0.388288
2486.54 0.372408
2487.18 0.357494
2487.83 0.343429
2488.47 0.330191
2489.11 0.317681
2489.75 0.305881
2490.40 0.294705
2491.04 0.284144
2492.32 0.264634
2493.03 0.254741
2493.74 0.245390
2495.15 0.228177
2496.56 0.212699
2497.98 0.198751
2499.39 0.186122
2500.80 0.174668
2502.22 0.164232
2503.63 0.154713
2504.53 0.149076
2505.43 0.143748
2507.23 0.133912
2509.03 0.125057
2510.83 0.117066
2512.63 0.109838
2514.42 0.103252
2516.22 0.0972349
2518.02 0.0917319
2519.44 0.0877311
2520.85 0.0839918
2522.26 0.0804869
2523.68 0.0772018
2525.09 0.0741143
2526.50 0.0712129
2529.33 0.0659042
2532.16 0.0611768
2534.98 0.0569490
2537.81 0.0531530
2540.64 0.0497321
2543.47 0.0466386
2546.29 0.0438321
2549.12 0.0412783
2551.95 0.0389478
2554.77 0.0368154
2557.60 0.0348594
2560.43 0.0330608
2563.25 0.0314039
2565.95 0.0299493
2568.65 0.0285938
2574.05 0.0261486
2579.45 0.0240211
2584.84 0.0221554
2590.24 0.0205120
2595.64 0.0190584
2601.03 0.0177649
2606.43 0.0166092
2612.08 0.0155272
2617.74 0.0145576
2623.39 0.0136859
2629.05 0.0129003
2634.70 0.0121887
2640.35 0.0115433
2646.01 0.0109560
2651.66 0.0104198
2660.91 0.00963946
2670.17 0.00896532
2679.42 0.00837354
2688.67 0.00785354
2697.92 0.00739486
2707.17 0.00698906
2716.43 0.00662935
2725.68 0.00631016
2736.99 0.00596865
2748.29 0.00567044
2759.60 0.00541107
2770.91 0.00518687
2782.22 0.00499122
2793.53 0.00482332
2816.14 0.00455750
2830.53 0.00443307
2844.93 0.00434071
2859.32 0.00427987
2873.71 0.00425299
2893.24 0.00428302
2903.01 0.00433506
2912.77 0.00442181
2922.54 0.00455867
2932.30 0.00478294
2942.07 0.00516166
2946.95 0.00543363
2951.84 0.00582023
2957.49 0.00651629
2960.32 0.00702212
2963.14 0.00769268
2965.97 0.00860120
2968.80 0.00994549
2970.21 0.0108613
2971.63 0.0120124
2973.04 0.0134830
2974.45 0.0154004
2975.55 0.0173365
2976.64 0.0198497
2977.73 0.0231954
2978.82 0.0277818
2979.37 0.0307525
2979.91 0.0343414
2980.46 0.0387577
2981.01 0.0443100
2981.55 0.0515018
2982.10 0.0612752
2982.37 0.0676942
2982.64 0.0756976
2982.92 0.0860250
2983.19 0.0998571
2983.37 0.111541
2983.54 0.126188
2983.72 0.144753
2983.90 0.168329
2984.07 0.198772
2984.25 0.237980
2984.43 0.288454
2984.52 0.318663
2984.60 0.352828
2984.69 0.391880
2984.78 0.435448
2984.87 0.485074
2984.96 0.540221
2985.05 0.602765
2985.14 0.671945
2985.22 0.749088
2985.31 0.834882
2985.40 0.931163
2985.49 1.03648
2985.58 1.15258
2985.66 1.28015
2985.75 1.42152
2985.84 1.57418
2985.93 1.74022
2986.02 1.92017
2986.10 2.09851
2986.18 2.28687
2986.26 2.49018
2986.34 2.70353
2986.42 2.93228
2986.50 3.17070
2986.58 3.42135
2986.66 3.68392
2986.74 3.96148
2986.82 4.24658
2986.90 4.54189
2986.98 4.84657
2987.14 5.48397
2987.30 6.14129
2987.64 7.55328
2987.81 8.23796
2987.98 8.88007
2988.07 9.19826
2988.15 9.49444
2988.24 9.76972
2988.33 10.0217
2988.43 10.2697
2988.52 10.4818
2988.60 10.6315
2988.68 10.7554
2988.77 10.8607
2988.86 10.9351
2988.99 10.9763
2989.00 10.9764
2989.03 10.9743
2989.06 10.9685
2989.12 10.9450
2989.23 10.8541
2989.35 10.7007
2989.43 10.5720
2989.50 10.4225
2989.62 10.1397
2989.74 9.81023
2989.85 9.48996
2989.95 9.14466
2990.05 8.77163
2990.15 8.38227
2990.34 7.64315
2990.52 6.87741
2990.71 6.10802
2990.89 5.35547
2991.06 4.67496
2991.15 4.34990
2991.24 4.04009
2991.32 3.73928
2991.41 3.45514
2991.50 3.18164
2991.58 2.92546
2991.67 2.68089
2991.76 2.45365
2991.84 2.23839
2991.93 2.03989
2992.02 1.85326
2992.10 1.68241
2992.19 1.52291
2992.27 1.37790
2992.36 1.24342
2992.45 1.12197
2992.53 1.01005
2992.62 0.909585
2992.71 0.817562
2992.79 0.735430
2992.88 0.660611
2992.97 0.594184
2993.05 0.533973
2993.14 0.480767
2993.23 0.432752
2993.31 0.390495
2993.40 0.352503
2993.49 0.318813
2993.66 0.262873
2993.83 0.219105
2994.01 0.184920
2994.18 0.158200
2994.35 0.137242
2994.52 0.120702
2994.70 0.107532
2994.87 0.0968707
2995.04 0.0882240
2995.39 0.0750420
2995.74 0.0654592
2996.08 0.0581131
2996.43 0.0522278
2996.78 0.0473973
2997.47 0.0398686
2998.16 0.0342638
2998.85 0.0299637
2999.54 0.0265801
3000.24 0.0238662
3001.62 0.0198162
3003.01 0.0169732
3004.39 0.0149029
3005.78 0.0133568
3007.16 0.0121806
3008.55 0.0112746
3011.32 0.00998654
3014.09 0.00914538
3016.86 0.00860262
3019.63 0.00826381
3022.39 0.00808275
3027.93 0.00804336
3031.57 0.00822037
3035.20 0.00853243
3038.84 0.00905218
3042.47 0.00981351
3046.11 0.0109102
3049.75 0.0125105
3051.56 0.0135884
3053.38 0.0149219
3055.20 0.0165803
3057.02 0.0186943
3058.40 0.0207469
3059.79 0.0233117
3061.17 0.0265613
3062.56 0.0307523
3063.94 0.0362888
3064.63 0.0397644
3065.33 0.0438623
3066.02 0.0487586
3066.71 0.0546577
3067.40 0.0618671
3068.09 0.0708165
3068.66 0.0798135
3069.22 0.0908862
3069.78 0.104793
3070.06 0.113143
3070.35 0.122705
3070.63 0.133822
3070.91 0.146839
3071.19 0.162420
3071.47 0.181511
3071.75 0.205678
3071.89 0.220321
3072.03 0.237046
3072.17 0.256583
3072.31 0.279260
3072.46 0.306153
3072.60 0.337798
3072.73 0.372559
3072.86 0.413587
3072.99 0.462143
3073.12 0.519707
3073.25 0.587999
3073.38 0.669003
3073.51 0.764981
3073.63 0.877537
3073.70 0.941656
3073.76 1.01124
3073.83 1.08669
3073.89 1.16842
3073.96 1.25686
3074.02 1.35246
3074.09 1.45567
3074.15 1.56521
3074.22 1.68495
3074.28 1.81374
3074.35 1.95206
3074.41 2.10042
3074.48 2.25930
3074.54 2.42919
3074.61 2.61055
3074.67 2.80079
3074.74 3.02588
3074.81 3.26278
3074.88 3.51875
3074.95 3.78702
3075.03 4.07565
3075.10 4.37681
3075.17 4.69470
3075.24 5.02948
3075.31 5.38637
3075.38 5.75529
3075.45 6.14664
3075.52 6.54917
3075.59 6.97398
3075.66 7.40863
3075.80 8.32244
3075.89 8.91784
3075.97 9.52484
3076.14 10.7920
3076.49 13.4270
3076.73 15.2187
3076.85 16.0761
3076.97 16.8926
3077.10 17.7241
3077.23 18.4729
3077.34 19.0846
3077.46 19.6104
3077.54 19.8975
3077.61 20.1412
3077.73 20.4454
3077.81 20.5874
3077.89 20.6796
3078.00 20.7237
3078.01 20.7234
3078.03 20.7204
3078.05 20.7138
3078.09 20.6902
3078.17 20.6024
3078.31 20.3548
3078.41 20.0786
3078.51 19.7305
3078.61 19.3100
3078.71 18.8302
3078.83 18.1846
3078.94 17.4736
3079.04 16.8170
3079.14 16.1304
3079.34 14.6759
3079.65 12.3154
3079.81 11.1373
3079.96 9.98804
3080.09 9.07293
3080.22 8.19711
3080.35 7.36697
3080.48 6.59324
3080.54 6.22327
3080.60 5.86708
3080.67 5.52487
3080.73 5.20179
3080.79 4.88764
3080.86 4.58762
3080.92 4.30167
3080.99 4.03378
3081.05 3.79103
3081.10 3.56388
3081.16 3.34800
3081.22 3.14311
3081.28 2.94574
3081.34 2.76218
3081.40 2.58872
3081.46 2.42504
3081.52 2.26824
3081.58 2.12322
3081.64 1.98690
3081.70 1.85892
3081.76 1.73696
3081.82 1.62470
3081.87 1.51968
3081.93 1.42155
3081.99 1.32843
3082.05 1.24309
3082.11 1.16358
3082.17 1.08957
3082.29 0.955702
3082.41 0.841288
3082.53 0.742086
3082.64 0.657688
3082.76 0.585332
3082.88 0.523351
3083.01 0.466135
3083.14 0.417739
3083.26 0.376738
3083.39 0.342166
3083.52 0.312451
3083.65 0.287203
3083.77 0.265299
3083.90 0.246484
3084.16 0.215486
3084.41 0.191436
3084.67 0.172180
3084.92 0.156371
3085.18 0.143059
3085.43 0.131735
3085.69 0.121922
3085.94 0.113320
3086.45 0.0989319
3086.96 0.0873759
3087.58 0.0760942
3088.20 0.0670520
3088.82 0.0596803
3089.44 0.0535934
3090.06 0.0484876
3090.68 0.0441637
3091.30 0.0404642
3091.92 0.0372758
3093.16 0.0320680
3094.40 0.0280423
3095.64 0.0248642
3096.88 0.0223173
3098.92 0.0191098
3100.96 0.0167485
3103.01 0.0149396
3105.05 0.0135332
3107.09 0.0124228
3109.13 0.0115358
3113.21 0.0102513
3117.30 0.00933707
3121.38 0.00869222
3125.46 0.00822960
3129.55 0.00789430
3135.38 0.00756854
3141.21 0.00736793
3147.04 0.00725402
3152.88 0.00720412
3162.21 0.00722219
3171.54 0.00732989
3180.88 0.00750830
3190.21 0.00774595
3199.54 0.00803700
3208.87 0.00838099
3218.21 0.00877894
3227.54 0.00923385
3235.71 0.00968312
3243.87 0.0101852
3252.04 0.0107447
3260.20 0.0113591
3268.37 0.0120528
3276.54 0.0128288
3284.70 0.0136987
3292.87 0.0146777
3299.29 0.0155359
3305.70 0.0164826
3312.12 0.0175316
3318.53 0.0186994
3324.95 0.0200039
3331.37 0.0214729
3337.78 0.0231407
3344.20 0.0250601
3347.41 0.0261437
3350.62 0.0273328
3353.82 0.0286413
3357.03 0.0301456
3360.24 0.0319579
3363.45 0.0343231
3365.05 0.0358874
3366.66 0.0379579
3368.26 0.0410191
3369.06 0.0432654
3369.86 0.0465153
3370.30 0.0491459
3370.74 0.0530178
3371.18 0.0593215
3371.40 0.0640449
3371.61 0.0703488
3371.83 0.0789010
3372.05 0.0904818
3372.27 0.106124
3372.49 0.127006
3372.71 0.154871
3372.93 0.191460
3373.15 0.238818
3373.25 0.267081
3373.36 0.298830
3373.51 0.347290
3373.66 0.403118
3373.80 0.466879
3373.95 0.539050
3374.09 0.619981
3374.24 0.709862
3374.39 0.808688
3374.53 0.915456
3374.68 1.03115
3374.82 1.15428
3374.97 1.28379
3375.11 1.41737
3375.70 1.96768
3375.86 2.11328
3376.02 2.24843
3376.19 2.36963
3376.35 2.47362
3376.51 2.55391
3376.59 2.58656
3376.66 2.61360
3376.75 2.63652
3376.83 2.65304
3376.94 2.66580
3377.00 2.66752
3377.11 2.66137
3377.25 2.63716
3377.37 2.60428
3377.48 2.56005
3377.59 2.50455
3377.71 2.43953
3377.82 2.36543
3377.93 2.28322
3378.05 2.19315
3378.16 2.09793
3378.38 1.89436
3378.84 1.46543
3378.95 1.36018
3379.09 1.23150
3379.23 1.10814
3379.38 0.991231
3379.52 0.882398
3379.66 0.780713
3379.80 0.687979
3379.94 0.603032
3380.08 0.527023
3380.20 0.471972
3380.31 0.421959
3380.43 0.373746
3380.55 0.331089
3380.67 0.292940
3380.79 0.259571
3380.91 0.230055
3381.03 0.204511
3381.15 0.182318
3381.27 0.163126
3381.51 0.132326
3381.75 0.109953
3381.99 0.0937738
3382.23 0.0822778
3382.48 0.0740789
3382.72 0.0682763
3383.20 0.0611001
3383.68 0.0571976
3384.16 0.0548758
3385.12 0.0523227
3386.08 0.0510498
3387.05 0.0504245
3388.01 0.0501899
3389.37 0.0502806
3390.73 0.0507013
3393.44 0.0521657
3396.16 0.0541682
3398.88 0.0565541
3401.37 0.0590279
3403.86 0.0617612
3406.35 0.0647563
3408.84 0.0680240
3411.33 0.0715864
3413.82 0.0754681
3416.31 0.0797007
3418.80 0.0843202
3421.29 0.0893749
3423.78 0.0949152
3426.28 0.101003
3428.77 0.107706
3430.01 0.111319
3431.26 0.115116
3432.50 0.119113
3433.75 0.123326
3434.99 0.127771
3436.24 0.132460
3437.48 0.137414
3438.73 0.142653
3440.31 0.149775
3441.90 0.157438
3443.48 0.165695
3445.07 0.174614
3446.65 0.184285
3448.24 0.194793
3449.82 0.206227
3450.62 0.212329
3451.41 0.218696
3452.65 0.229306
3453.90 0.240695
3455.15 0.252958
3456.39 0.266165
3457.64 0.280437
3458.88 0.295864
3460.13 0.312587
3461.37 0.330752
3461.99 0.340434
3462.62 0.350541
3463.24 0.361100
3463.86 0.372117
3464.49 0.383657
3465.11 0.395714
3465.73 0.408359
3466.35 0.421586
3466.98 0.435478
3467.60 0.450053
3468.22 0.465356
3468.84 0.481410
3469.47 0.498317
3470.09 0.516079
3470.71 0.534814
3471.33 0.554527
3472.30 0.587202
3473.26 0.622716
3474.22 0.661472
3474.70 0.682144
3475.18 0.703759
3475.67 0.726419
3476.15 0.750092
3476.63 0.774889
3477.11 0.800882
3477.59 0.828145
3478.07 0.856762
3478.55 0.886819
3479.03 0.918406
3479.66 0.961754
3480.28 1.00806
3480.90 1.05758
3481.52 1.11050
3482.15 1.16729
3482.77 1.22820
3483.39 1.29360
3484.01 1.36376
3484.64 1.43934
3485.26 1.52070
3485.88 1.60836
3486.51 1.70270
3487.13 1.80462
3487.75 1.91458
3488.37 2.03324
3489.00 2.16107
3489.66 2.30745
3490.31 2.46562
3490.97 2.63655
3491.63 2.82085
3492.29 3.01931
3492.95 3.23151
3493.60 3.45756
3494.26 3.69679
3494.71 3.86619
3495.16 4.04047
3496.05 4.39990
3497.84 5.12847
3498.73 5.46918
3499.18 5.62588
3499.62 5.76994
3500.07 5.89962
3500.52 6.01204
3500.96 6.10562
3501.41 6.17811
3502.01 6.23997
3502.60 6.25979
3503.20 6.23689
3503.79 6.17203
3504.28 6.09009
3504.76 5.98394
3505.24 5.85598
3505.73 5.70897
3506.21 5.54589
3506.70 5.36982
3507.66 4.99081
3508.63 4.59442
3509.60 4.19902
3510.57 3.81820
3511.54 3.46122
3512.16 3.24441
3512.79 3.04025
3513.42 2.84893
3514.05 2.67030
3514.68 2.50401
3515.30 2.34952
3515.93 2.20622
3516.56 2.07341
3517.22 1.94345
3517.89 1.82383
3518.55 1.71339
3519.22 1.61170
3519.88 1.51775
3520.55 1.43115
3521.21 1.35110
3521.87 1.27703
3522.48 1.21390
3523.09 1.15499
3523.70 1.09995
3524.31 1.04849
3524.92 1.00033
3525.53 0.955226
3526.14 0.912938
3526.75 0.873318
3527.35 0.836038
3527.96 0.800986
3528.57 0.767997
3529.18 0.736921
3529.79 0.707619
3530.40 0.679965
3531.01 0.653843
3531.62 0.629186
3532.23 0.605814
3532.83 0.583680
3534.05 0.542799
3535.27 0.505955
3536.49 0.472675
3537.71 0.442476
3538.92 0.415021
3540.14 0.389995
3541.36 0.367143
3542.80 0.342562
3544.24 0.320347
3545.68 0.300194
3547.12 0.281867
3548.56 0.265156
3549.99 0.249896
3551.43 0.235892
3552.87 0.223004
3554.09 0.212888
3555.31 0.203438
3556.53 0.194598
3557.74 0.186318
3558.96 0.178551
3560.18 0.171256
3561.40 0.164396
3562.62 0.157943
3563.83 0.151855
3565.05 0.146111
3566.27 0.140685
3567.49 0.135558
3569.92 0.126100
3572.36 0.117598
3574.79 0.109923
3577.23 0.102973
3579.67 0.0966613
3582.10 0.0909140
3584.54 0.0856621
3586.97 0.0808524
3589.41 0.0764370
3591.84 0.0723756
3593.95 0.0691224
3596.05 0.0660914
3600.26 0.0606101
3604.46 0.0557657
3608.67 0.0514822
3612.88 0.0476770
3617.09 0.0442816
3621.29 0.0412395
3625.50 0.0385045
3630.37 0.0356678
3635.24 0.0331384
3640.11 0.0308732
3644.98 0.0288381
3649.86 0.0270025
3654.73 0.0253428
3659.60 0.0238375
3664.47 0.0224691
3669.34 0.0212224
3674.21 0.0200855
3679.08 0.0190476
3683.95 0.0181005
3688.83 0.0172378
3693.70 0.0164562
3698.57 0.0157552
3703.44 0.0151403
3710.53 0.0144371
3714.07 0.0142044
3717.61 0.0141074
3721.60 0.0142983
3723.59 0.0146146
3725.58 0.0152096
3727.57 0.0163107
3728.57 0.0171921
3729.57 0.0184499
3730.56 0.0203492
3731.06 0.0217108
3731.56 0.0235627
3732.06 0.0262945
3732.31 0.0282296
3732.56 0.0307713
3732.81 0.0341927
3733.05 0.0388893
3733.30 0.0454231
3733.55 0.0545738
3733.77 0.0657888
3734.00 0.0808057
3734.22 0.100957
3734.44 0.127498
3734.66 0.162360
3734.88 0.207128
3735.10 0.263989
3735.21 0.297773
3735.32 0.335046
3735.43 0.376736
3735.55 0.422758
3735.66 0.473325
3735.77 0.528099
3735.88 0.588222
3735.99 0.653315
3736.10 0.723427
3736.21 0.797845
3736.32 0.877842
3736.43 0.962611
3736.54 1.05192
3736.65 1.14459
3736.87 1.34164
3737.09 1.54956
3737.59 2.02841
3737.72 2.14318
3737.84 2.25220
3737.97 2.35580
3738.09 2.45093
3738.20 2.52854
3738.31 2.59809
3738.42 2.65878
3738.53 2.70946
3738.64 2.74818
3738.74 2.77751
3738.88 2.80166
3738.99 2.80799
3739.00 2.80802
3739.01 2.80797
3739.04 2.80735
3739.06 2.80607
3739.12 2.80137
3739.23 2.78256
3739.33 2.75711
3739.43 2.72326
3739.53 2.68132
3739.63 2.63170
3739.72 2.57486
3739.85 2.48921
3739.99 2.38616
3740.13 2.27301
3740.27 2.15171
3740.41 2.02516
3740.96 1.49297
3741.19 1.28029
3741.31 1.17816
3741.42 1.08080
3741.54 0.986963
3741.65 0.898662
3741.77 0.815335
3741.88 0.737166
3741.99 0.663644
3742.11 0.596073
3742.22 0.533749
3742.34 0.476569
3742.45 0.423945
3742.57 0.376594
3742.68 0.333807
3742.79 0.295329
3742.97 0.244822
3743.14 0.202741
3743.31 0.167607
3743.48 0.138873
3743.65 0.115293
3743.82 0.0963112
3743.99 0.0809526
3744.17 0.0687384
3744.34 0.0589524
3744.51 0.0512253
3744.68 0.0450592
3744.85 0.0401927
3745.02 0.0362957
3745.19 0.0331961
3745.54 0.0286628
3745.88 0.0255874
3746.22 0.0233996
3746.91 0.0204696
3747.59 0.0185263
3748.28 0.0171083
3749.65 0.0151486
3751.02 0.0138581
3753.76 0.0122459
3757.68 0.0109675
3761.60 0.0101957
3765.52 0.00965238
3769.43 0.00923399
3777.27 0.00858422
3785.11 0.00807846
3796.60 0.00748665
3808.09 0.00702121
3819.58 0.00667138
3831.07 0.00647273
3835.25 0.00645869
3841.00 0.00653071
3846.75 0.00679373
3849.62 0.00705777
3852.49 0.00748199
3855.37 0.00818350
3856.80 0.00870675
3858.24 0.00940777
3860.07 0.0106961
3860.98 0.0116000
3861.90 0.0127727
3862.81 0.0143336
3863.72 0.0164806
3864.64 0.0196004
3865.09 0.0217859
3865.55 0.0247110
3865.83 0.0270680
3866.11 0.0301060
3866.39 0.0341564
3866.66 0.0397041
3866.94 0.0475525
3867.22 0.0587641
3867.36 0.0661456
3867.50 0.0750298
3867.63 0.0857177
3867.77 0.0984571
3867.91 0.113831
3868.05 0.132210
3868.19 0.154105
3868.33 0.179881
3868.47 0.210531
3868.61 0.246557
3868.74 0.288679
3868.88 0.337269
3869.02 0.393803
3869.16 0.458732
3869.30 0.532819
3869.44 0.616147
3869.58 0.710574
3869.72 0.816092
3869.85 0.933128
3869.99 1.06098
3870.10 1.16815
3870.21 1.28120
3870.31 1.40094
3870.42 1.52714
3870.52 1.65947
3870.63 1.79749
3870.74 1.94066
3870.84 2.08834
3871.05 2.39559
3871.27 2.70910
3871.48 3.02169
3871.69 3.32364
3871.85 3.53174
3872.00 3.72459
3872.16 3.89823
3872.31 4.04898
3872.46 4.16778
3872.60 4.26006
3872.69 4.30334
3872.78 4.33583
3872.87 4.35725
3872.98 4.36819
3873.00 4.36837
3873.01 4.36831
3873.04 4.36738
3873.06 4.36544
3873.12 4.35836
3873.24 4.32705
3873.40 4.25924
3873.55 4.16159
3873.70 4.03596
3873.82 3.92063
3873.94 3.79267
3874.08 3.62422
3874.27 3.37674
3874.46 3.11114
3874.65 2.83476
3875.03 2.27734
3875.22 2.00848
3875.40 1.75283
3875.50 1.63052
3875.59 1.51407
3875.69 1.40247
3875.78 1.29595
3875.91 1.15729
3876.04 1.02891
3876.17 0.910896
3876.30 0.803145
3876.43 0.705420
3876.56 0.617361
3876.69 0.538509
3876.82 0.468840
3876.95 0.406691
3877.08 0.352016
3877.21 0.304180
3877.34 0.262548
3877.47 0.226498
3877.60 0.195429
3877.73 0.168773
3877.86 0.146160
3877.99 0.126749
3878.12 0.110281
3878.25 0.0963511
3878.38 0.0845951
3878.51 0.0746914
3878.64 0.0663574
3878.90 0.0534898
3879.16 0.0443109
3879.42 0.0377479
3879.68 0.0329360
3879.94 0.0293519
3880.41 0.0247566
3880.88 0.0216354
3881.35 0.0193308
3881.83 0.0175304
3882.77 0.0148648
3883.71 0.0129823
3884.61 0.0116479
3885.51 0.0106149
3887.30 0.00913409
3889.10 0.00814370
3890.89 0.00743411
3894.48 0.00649217
3898.07 0.00591668
3901.66 0.00553396
3905.24 0.00526299
3912.42 0.00490861
3923.00 0.00462784
3933.57 0.00453160
3940.37 0.00458868
3947.17 0.00484079
3950.57 0.00512945
3953.97 0.00565583
3955.67 0.00608566
3957.37 0.00673176
3959.07 0.00775283
3959.92 0.00849997
3960.77 0.00950808
3961.53 0.0107572
3962.28 0.0126001
3962.66 0.0139310
3963.04 0.0157507
3963.42 0.0183816
3963.60 0.0201638
3963.79 0.0223724
3963.98 0.0251622
3964.17 0.0286904
3964.36 0.0331683
3964.55 0.0388578
3964.74 0.0460789
3964.93 0.0552158
3965.12 0.0667213
3965.30 0.0810340
3965.49 0.0988947
3965.68 0.120887
3965.87 0.147709
3966.06 0.180084
3966.25 0.218731
3966.44 0.264326
3966.63 0.317458
3966.81 0.378233
3967.04 0.461696
3967.26 0.556346
3967.49 0.662370
3967.71 0.777466
3967.94 0.900521
3968.16 1.02755
3968.39 1.15552
3968.61 1.28029
3968.80 1.37980
3968.99 1.47109
3969.18 1.55151
3969.36 1.61826
3969.53 1.66430
3969.69 1.69740
3969.80 1.71100
3969.90 1.71920
3970.00 1.72192
3970.17 1.71465
3970.34 1.69160
3970.44 1.67098
3970.54 1.64562
3970.64 1.61526
3970.75 1.58078
3970.95 1.49950
3971.15 1.40519
3971.35 1.30014
3971.56 1.18876
3972.08 0.892712
3972.34 0.751132
3972.47 0.684401
3972.60 0.620768
3972.73 0.560108
3972.86 0.503588
3972.99 0.450887
3973.12 0.402089
3973.25 0.356877
3973.38 0.315897
3973.51 0.278690
3973.64 0.245116
3973.85 0.198099
3974.06 0.159227
3974.27 0.127537
3974.48 0.102036
3974.69 0.0817610
3974.90 0.0658123
3975.11 0.0533826
3975.32 0.0438079
3975.53 0.0364015
3975.74 0.0307201
3975.95 0.0263626
3976.16 0.0230103
3976.37 0.0204149
3976.58 0.0183858
3977.00 0.0154923
3977.42 0.0135541
3977.84 0.0121678
3978.68 0.0102793
3979.52 0.00901756
3980.35 0.00810710
3981.28 0.00736062
3982.55 0.00661680
3983.83 0.00608127
3986.38 0.00537441
3988.92 0.00494807
3991.47 0.00467120
3996.56 0.00434959
4001.66 0.00414774
4011.85 0.00397380
4022.03 0.00392448
4036.85 0.00397333
4051.67 0.00413133
4066.49 0.00440616
4081.31 0.00483863
4091.50 0.00526276
4101.69 0.00583363
4111.87 0.00661275
4116.97 0.00710950
4122.06 0.00769820
4127.16 0.00840431
4132.25 0.00926166
4137.34 0.0103124
4142.44 0.0116178
4147.30 0.0131820
4152.16 0.0151692
4154.59 0.0163706
4157.03 0.0177461
4159.46 0.0193294
4161.89 0.0211628
4164.44 0.0234218
4166.98 0.0261106
4169.53 0.0293436
4172.08 0.0332784
4174.62 0.0381343
4175.90 0.0410019
4177.17 0.0442244
4178.44 0.0478694
4179.72 0.0520074
4180.99 0.0567399
4182.26 0.0621779
4183.48 0.0681723
4184.70 0.0751104
4185.91 0.0832168
4187.13 0.0927539
4188.34 0.104099
4189.56 0.117714
4190.17 0.125578
4190.77 0.134278
4191.38 0.143940
4191.99 0.154696
4192.92 0.173686
4193.38 0.184548
4193.84 0.196493
4194.30 0.209671
4194.77 0.224260
4195.23 0.240472
4195.69 0.258562
4196.04 0.273579
4196.39 0.289936
4196.74 0.307907
4197.08 0.327601
4197.43 0.349382
4197.78 0.373418
4198.13 0.400123
4198.47 0.429918
4198.79 0.460477
4199.11 0.494453
4199.43 0.532646
4199.75 0.575533
4200.07 0.624264
4200.38 0.679628
4200.54 0.710461
4200.70 0.743338
4200.86 0.778668
4201.02 0.816702
4201.16 0.852121
4201.30 0.889708
4201.43 0.930236
4201.57 0.973360
4201.71 1.01998
4201.85 1.06971
4201.98 1.12361
4202.12 1.18124
4202.26 1.24382
4202.40 1.31088
4202.53 1.38382
4202.67 1.46209
4202.81 1.54733
4202.95 1.63886
4203.08 1.73785
4203.22 1.84490
4203.38 1.98095
4203.46 2.05374
4203.54 2.12890
4203.62 2.20847
4203.70 2.29059
4203.78 2.37746
4203.86 2.46705
4203.94 2.56173
4204.02 2.65928
4204.10 2.76228
4204.17 2.86826
4204.25 2.98002
4204.33 3.09486
4204.49 3.33986
4204.65 3.60561
4204.81 3.88922
4204.97 4.19250
4205.13 4.51535
4205.29 4.85960
4205.45 5.22018
4205.61 5.59803
4205.77 5.99156
4205.95 6.47432
4206.14 6.97197
4206.33 7.47948
4206.52 7.99092
4206.84 8.84868
4207.16 9.65955
4207.41 10.2474
4207.66 10.7616
4207.79 10.9863
4207.91 11.1866
4208.04 11.3608
4208.16 11.5071
4208.30 11.6305
4208.43 11.7196
4208.57 11.7733
4208.70 11.7910
4208.88 11.7582
4209.03 11.6841
4209.17 11.5695
4209.32 11.4153
4209.46 11.2236
4209.61 10.9950
4209.75 10.7356
4209.90 10.4469
4210.04 10.1324
4210.25 9.64803
4210.45 9.13177
4210.66 8.58913
4210.86 8.03557
4211.27 6.94394
4211.47 6.41067
4211.67 5.89776
4211.83 5.51506
4211.98 5.15011
4212.14 4.79962
4212.29 4.46906
4212.45 4.15485
4212.60 3.86133
4212.76 3.58476
4212.91 3.32848
4213.01 3.17122
4213.12 3.02148
4213.22 2.87907
4213.32 2.74508
4213.42 2.61664
4213.52 2.49603
4213.62 2.38062
4213.72 2.27242
4213.82 2.16903
4213.92 2.07129
4214.02 1.97893
4214.12 1.89253
4214.22 1.81011
4214.32 1.73304
4214.52 1.59084
4214.73 1.46347
4214.93 1.35043
4215.13 1.24948
4215.33 1.15918
4215.53 1.07787
4215.73 1.00520
4215.93 0.939753
4216.13 0.880649
4216.33 0.829154
4216.52 0.782442
4216.71 0.739725
4216.90 0.700559
4217.09 0.664558
4217.29 0.631383
4217.48 0.600741
4217.67 0.572374
4218.06 0.521462
4218.44 0.477410
4218.82 0.438907
4219.21 0.405034
4219.61 0.373664
4220.01 0.345908
4220.42 0.321220
4220.82 0.299207
4221.22 0.279394
4221.62 0.261579
4222.03 0.245420
4222.43 0.230786
4222.94 0.213984
4223.45 0.199025
4223.97 0.185622
4224.48 0.173562
4224.99 0.162650
4225.50 0.152780
4226.53 0.135619
4227.33 0.124115
4228.14 0.114064
4228.94 0.105221
4229.75 0.0973988
4230.55 0.0904387
4231.36 0.0842331
4232.16 0.0786699
4232.97 0.0736635
4234.58 0.0650445
4236.19 0.0579256
4237.80 0.0519808
4239.41 0.0469686
4241.02 0.0426999
4242.63 0.0390367
4244.24 0.0358701
4245.85 0.0331173
4247.46 0.0307101
4249.07 0.0285971
4252.29 0.0250818
4255.51 0.0223049
4258.73 0.0200872
4261.95 0.0183012
4265.17 0.0168578
4268.25 0.0157393
4271.32 0.0148251
4274.39 0.0140864
4277.47 0.0135009
4283.62 0.0127256
4289.76 0.0124185
4295.03 0.0125140
4300.30 0.0129662
4305.57 0.0138387
4310.84 0.0152545
4314.06 0.0164791
4317.28 0.0180627
4320.51 0.0201166
4323.73 0.0228016
4326.36 0.0256361
4329.00 0.0292529
4331.63 0.0339395
4332.95 0.0368145
4334.26 0.0401447
4335.88 0.0449841
4337.49 0.0508891
4339.10 0.0581959
4339.90 0.0625167
4340.71 0.0673823
4341.51 0.0728955
4342.32 0.0791604
4343.12 0.0863301
4343.93 0.0945886
4344.73 0.104170
4345.54 0.115377
4346.34 0.128604
4347.15 0.144376
4347.81 0.159669
4348.46 0.177657
4349.12 0.199033
4349.78 0.224693
4350.11 0.239576
4350.44 0.256024
4350.77 0.274392
4351.10 0.294879
4351.43 0.317995
4351.76 0.344077
4352.09 0.373793
4352.42 0.407915
4352.71 0.442813
4353.00 0.482896
4353.30 0.529323
4353.59 0.583380
4353.81 0.630373
4354.03 0.683588
4354.25 0.744709
4354.47 0.814605
4354.58 0.853640
4354.69 0.895615
4354.80 0.940790
4354.90 0.988989
4355.01 1.04139
4355.12 1.09791
4355.23 1.15887
4355.34 1.22402
4355.44 1.28895
4355.55 1.35858
4355.65 1.43324
4355.75 1.51246
4355.85 1.59817
4355.95 1.68997
4356.05 1.78823
4356.15 1.89226
4356.25 2.00451
4356.35 2.12436
4356.45 2.25217
4356.55 2.38693
4356.65 2.53168
4356.75 2.68387
4356.85 2.84686
4356.95 3.01769
4357.07 3.23356
4357.19 3.46341
4357.31 3.70746
4357.43 3.96581
4357.55 4.23846
4357.67 4.52523
4357.79 4.82583
4357.91 5.13706
4358.01 5.41338
4358.11 5.69831
4358.21 5.99125
4358.31 6.28846
4358.51 6.90412
4358.71 7.53757
4358.89 8.12197
4359.08 8.70544
4359.26 9.27913
4359.44 9.83364
4359.64 10.4117
4359.85 10.9388
4359.98 11.2641
4360.12 11.5574
4360.26 11.8153
4360.39 12.0347
4360.55 12.2298
4360.70 12.3711
4360.85 12.4565
4361.00 12.4846
4361.12 12.4656
4361.32 12.3563
4361.52 12.1525
4361.72 11.8596
4361.91 11.4873
4362.10 11.0749
4362.28 10.6090
4362.47 10.0989
4362.65 9.55768
4362.83 8.98304
4363.02 8.39690
4363.39 7.21487
4363.58 6.63863
4363.76 6.08043
4363.95 5.54579
4364.13 5.03905
4364.28 4.64586
4364.43 4.27489
4364.59 3.92689
4364.74 3.60425
4364.89 3.30266
4365.04 3.02397
4365.19 2.76755
4365.34 2.53403
4365.44 2.40030
4365.53 2.27395
4365.62 2.15471
4365.72 2.04347
4365.81 1.93753
4365.90 1.83783
4365.99 1.74409
4366.09 1.65693
4366.18 1.57415
4366.27 1.49645
4366.46 1.35587
4366.64 1.23215
4366.83 1.12329
4367.03 1.01879
4367.23 0.928235
4367.43 0.849191
4367.64 0.780001
4367.84 0.719234
4368.04 0.665660
4368.24 0.618232
4368.44 0.576063
4368.63 0.541237
4368.82 0.509897
4369.00 0.481285
4369.19 0.455351
4369.56 0.409754
4369.93 0.371249
4370.30 0.338191
4370.67 0.309616
4371.04 0.284707
4371.41 0.262886
4371.78 0.243543
4372.15 0.226347
4372.52 0.210980
4372.89 0.197219
4373.63 0.173547
4374.38 0.154020
4374.98 0.140451
4375.59 0.128670
4376.20 0.118337
4376.80 0.109249
4377.41 0.101184
4378.01 0.0940160
4379.23 0.0818358
4379.97 0.0755484
4380.71 0.0699870
4382.19 0.0606047
4383.68 0.0530447
4385.16 0.0468608
4386.91 0.0409014
4388.66 0.0360546
4390.42 0.0320590
4392.17 0.0287222
4393.65 0.0263075
4395.13 0.0242007
4398.10 0.0207218
4401.06 0.0179849
4404.03 0.0157928
4407.00 0.0140076
4409.96 0.0125342
4412.93 0.0113030
4415.89 0.0102647
4421.82 0.00861455
4427.75 0.00737283
4433.68 0.00641413
4439.61 0.00565691
4446.08 0.00499739
4452.55 0.00446617
4459.02 0.00403114
4465.49 0.00367072
4474.12 0.00327459
4482.75 0.00295342
4491.37 0.00268897
4492.45 0.00266549
4493.53 0.00270194
4494.07 0.00282396
4494.34 0.00295231
4494.61 0.00315644
4494.88 0.00347407
4495.15 0.00395203
4495.42 0.00465946
4495.69 0.00567507
4495.96 0.00711156
4496.23 0.00909289
4496.50 0.0117667
4496.77 0.0152828
4497.04 0.0198420
4497.30 0.0255854
4497.57 0.0327203
4497.84 0.0413320
4498.11 0.0515827
4498.38 0.0634381
4498.65 0.0769602
4498.92 0.0919464
4499.46 0.125721
4500.00 0.162482
4500.00 0.322541
4843.75 0.312240
5187.50 0.302941
5531.25 0.294490
5875.00 0.286764
6562.50 0.273106
7250.00 0.261368
7937.50 0.251132
8625.00 0.242100
9312.50 0.234050
10000.0 0.226813
10937.5 0.215092
11875.0 0.204868
12812.5 0.195855
13750.0 0.187834
14687.5 0.180639
15625.0 0.174141
16562.5 0.168235
17500.0 0.162838
18437.5 0.157884
19375.0 0.153314
20312.5 0.149084
21250.0 0.145154
23125.0 0.138065
25000.0 0.131836
26562.5 0.127189
28125.0 0.122957
29687.5 0.119084
31250.0 0.115522
32812.5 0.112233
34375.0 0.109185
37500.0 0.103703
40625.0 0.0989037
43750.0 0.0946585
46875.0 0.0908703
50000.0 0.0874640
52500.0 0.0850776
55000.0 0.0828630
60000.0 0.0788742
65000.0 0.0753747
70000.0 0.0722732
73750.0 0.0703395
77500.0 0.0685497
85000.0 0.0653368
92500.0 0.0625279
100000 0.0600452
100000 0.0600452
106533 0.0584369
113066 0.0569636
126132 0.0543528
135366 0.0527301
144599 0.0512583
153833 0.0499150
163066 0.0486822
181533 0.0464923
200000 0.0445995
225000 0.0428313
250000 0.0413091
275000 0.0399788
300000 0.0388017
323359 0.0379856
323360 0.0379855
323364 0.0379853
323364 0.0379853
324562 0.0379192
325759 0.0378534
328154 0.0377230
330548 0.0375939
332943 0.0374662
337733 0.0372148
342522 0.0369685
347312 0.0367273
352101 0.0364910
361680 0.0360322
371260 0.0355908
380840 0.0351660
390420 0.0347565
400000 0.0343616
425000 0.0338353
450000 0.0333465
475000 0.0328906
500000 0.0324638
541246 0.0321074
582492 0.0317806
582500 0.0317778
582501 0.0317776
582501 0.0317775
584688 0.0310104
586876 0.0302646
591250 0.0288341
595625 0.0274810
600000 0.0262007
612500 0.0256961
625000 0.0252112
650000 0.0242957
675000 0.0234462
700000 0.0226557
725000 0.0221983
750000 0.0217651
775000 0.0213543
800000 0.0209638
842374 0.0205326
884747 0.0201308
884760 0.0201304
884760 0.0201304
886665 0.0200777
888570 0.0200253
892380 0.0199212
900000 0.0197158
912500 0.0195800
925000 0.0194469
950000 0.0191888
975000 0.0189406
1.00000E+06 0.0187018
1.04353E+06 0.0184908
1.04355E+06 0.0184907
1.04370E+06 0.0184898
1.04618E+06 0.0184748
1.04865E+06 0.0184600
1.05360E+06 0.0184303
1.06350E+06 0.0183716
1.07340E+06 0.0183137
1.08330E+06 0.0182564
1.10310E+06 0.0181440
1.12290E+06 0.0180342
1.12298E+06 0.0180338
1.12643E+06 0.0180025
1.12988E+06 0.0179713
1.13678E+06 0.0179095
1.15058E+06 0.0177875
1.15060E+06 0.0177873
1.15060E+06 0.0177873
1.15371E+06 0.0177601
1.15681E+06 0.0177331
1.16303E+06 0.0176794
1.17545E+06 0.0175733
1.18788E+06 0.0174689
1.20030E+06 0.0173662
1.22515E+06 0.0171658
1.25000E+06 0.0169716
1.27654E+06 0.0167709
1.30307E+06 0.0165766
1.32961E+06 0.0163883
1.35614E+06 0.0162059
1.35616E+06 0.0162056
1.35630E+06 0.0162033
1.36079E+06 0.0161296
1.36528E+06 0.0160566
1.37426E+06 0.0159122
1.38324E+06 0.0157700
1.39223E+06 0.0156300
1.41019E+06 0.0153563
1.42815E+06 0.0150908
1.44611E+06 0.0148331
1.46408E+06 0.0145830
1.50000E+06 0.0141039
1.50930E+06 0.0140505
1.50975E+06 0.0140479
1.51456E+06 0.0139576
1.51936E+06 0.0138682
1.52898E+06 0.0136918
1.53859E+06 0.0135188
1.54820E+06 0.0133491
1.54821E+06 0.0133489
1.54823E+06 0.0133488
1.54823E+06 0.0133487
1.55137E+06 0.0133265
1.55450E+06 0.0133043
1.56077E+06 0.0132601
1.57330E+06 0.0131728
1.58584E+06 0.0130866
1.59838E+06 0.0130017
1.62347E+06 0.0128355
1.64856E+06 0.0126739
1.67364E+06 0.0125167
1.69873E+06 0.0123637
1.74890E+06 0.0120699
1.74893E+06 0.0120698
1.75000E+06 0.0120646
1.75508E+06 0.0120404
1.76015E+06 0.0120163
1.77030E+06 0.0119683
1.79060E+06 0.0118739
1.79063E+06 0.0118737
1.79464E+06 0.0118483
1.79866E+06 0.0118230
1.80670E+06 0.0117728
1.82276E+06 0.0116735
1.83884E+06 0.0115759
1.85493E+06 0.0114800
1.88709E+06 0.0112929
1.91925E+06 0.0111119
1.91928E+06 0.0111118
1.92341E+06 0.0110939
1.92755E+06 0.0110762
1.93581E+06 0.0110408
1.95233E+06 0.0109709
1.95236E+06 0.0109707
1.95831E+06 0.0109347
1.96426E+06 0.0108990
1.97617E+06 0.0108281
2.00000E+06 0.0106889
2.00123E+06 0.0106819
2.00127E+06 0.0106779
2.00194E+06 0.0106019
2.00198E+06 0.0106015
2.00634E+06 0.0105519
2.01069E+06 0.0105026
2.01945E+06 0.0104047
2.03695E+06 0.0102129
2.03698E+06 0.0102127
2.04108E+06 0.0101848
2.04518E+06 0.0101570
2.05338E+06 0.0101019
2.05342E+06 0.0101017
2.05884E+06 0.0100651
2.06426E+06 0.0100287
2.07510E+06 0.00995675
2.07513E+06 0.00995665
2.07997E+06 0.00994060
2.08481E+06 0.00992461
2.09450E+06 0.00989283
2.11386E+06 0.00983001
2.13324E+06 0.00976810
2.15262E+06 0.00970714
2.19137E+06 0.00958796
2.23013E+06 0.00947230
2.23017E+06 0.00947219
2.23556E+06 0.00945636
2.24095E+06 0.00944060
2.25174E+06 0.00940927
2.25178E+06 0.00940913
2.25245E+06 0.00940657
2.26032E+06 0.00937906
2.26818E+06 0.00935172
2.28391E+06 0.00929756
2.28394E+06 0.00929745
2.29262E+06 0.00926786
2.30130E+06 0.00923848
2.31866E+06 0.00918032
2.33604E+06 0.00912291
2.35341E+06 0.00906627
2.35345E+06 0.00906616
2.36201E+06 0.00903853
2.37057E+06 0.00901108
2.38770E+06 0.00895673
2.38774E+06 0.00895661
2.39661E+06 0.00892875
2.40548E+06 0.00890108
2.42321E+06 0.00884630
2.44097E+06 0.00879220
2.45872E+06 0.00873881
2.45876E+06 0.00873868
2.46420E+06 0.00872248
2.46424E+06 0.00872235
2.46552E+06 0.00871855
2.46556E+06 0.00871843
2.47389E+06 0.00869375
2.48222E+06 0.00866923
2.49893E+06 0.00862051
2.51563E+06 0.00857238
2.53233E+06 0.00852484
2.56574E+06 0.00843148
2.59914E+06 0.00834032
2.63255E+06 0.00825129
2.66595E+06 0.00816432
2.73276E+06 0.00799625
2.79957E+06 0.00783558
2.86638E+06 0.00768182
2.93319E+06 0.00753451
3.00000E+06 0.00739325
3.06250E+06 0.00719919
3.12500E+06 0.00701399
3.18750E+06 0.00683708
3.25000E+06 0.00666795
3.37500E+06 0.00635109
3.50000E+06 0.00606002
3.62500E+06 0.00579181
3.75000E+06 0.00554397
3.87500E+06 0.00531436
4.00000E+06 0.00510110
4.11171E+06 0.00482377
4.22342E+06 0.00456836
4.33513E+06 0.00433262
4.44684E+06 0.00411459
4.44745E+06 0.00411345
4.54811E+06 0.00393079
4.66108E+06 0.00373985
4.77406E+06 0.00356243
4.88703E+06 0.00339729
5.00000E+06 0.00324332
5.12500E+06 0.00303674
5.25000E+06 0.00284783
5.37500E+06 0.00267471
5.50000E+06 0.00251575
5.62500E+06 0.00236949
5.75000E+06 0.00223467
5.87500E+06 0.00211018
6.00000E+06 0.00199503
6.08796E+06 0.00190243
6.17592E+06 0.00181537
6.26388E+06 0.00173344
6.35185E+06 0.00165627
6.43981E+06 0.00158353
6.52777E+06 0.00151491
6.61573E+06 0.00145012
6.70369E+06 0.00138891
6.85185E+06 0.00129322
7.00000E+06 0.00120596
7.12500E+06 0.00112846
7.25000E+06 0.00105716
7.37500E+06 0.000991473
7.50000E+06 0.000930869
7.62500E+06 0.000874882
7.75000E+06 0.000823091
7.87500E+06 0.000775123
8.00000E+06 0.000730641
8.11142E+06 0.000692938
8.22283E+06 0.000657655
8.33425E+06 0.000624608
8.44566E+06 0.000593628
8.48528E+06 0.000583080
8.61396E+06 0.000556264
8.74264E+06 0.000531051
8.87132E+06 0.000507325
9.00000E+06 0.000484978
9.00972E+06 0.000483659
9.24021E+06 0.000453794
9.48683E+06 0.000433438
9.74004E+06 0.000424336
9.87002E+06 0.000425825
1.00000E+07 0.000427300
1.02411E+07 0.000437540
1.04591E+07 0.000456813
1.04606E+07 0.000456945
1.04881E+07 0.000459409
1.05607E+07 0.000469232
1.07410E+07 0.000494237
1.08705E+07 0.000518565
1.10000E+07 0.000543780
1.12446E+07 0.000578530
1.14891E+07 0.000614681
1.17446E+07 0.000669571
1.18723E+07 0.000698344
1.20000E+07 0.000728022
1.22500E+07 0.000747705
1.25000E+07 0.000767507
1.27500E+07 0.000787426
1.28750E+07 0.000797428
1.30000E+07 0.000807459
1.32500E+07 0.000798285
1.35000E+07 0.000789384
1.37500E+07 0.000780743
1.38750E+07 0.000776516
1.40000E+07 0.000772350
1.42500E+07 0.000756212
1.45000E+07 0.000740684
1.47939E+07 0.000722216
1.50000E+07 0.000709751
1.52500E+07 0.000696474
1.55000E+07 0.000683656
1.57500E+07 0.000671273
1.60000E+07 0.000659304
1.62500E+07 0.000650816
1.65000E+07 0.000642565
1.67500E+07 0.000634539
1.70000E+07 0.000626731
1.72500E+07 0.000622186
1.75000E+07 0.000617739
1.77500E+07 0.000613385
1.80000E+07 0.000609123
1.82500E+07 0.000607540
1.85000E+07 0.000605983
1.87500E+07 0.000604451
1.90000E+07 0.000602943
1.92500E+07 0.000603593
1.95000E+07 0.000604236
1.97500E+07 0.000604870
2.00000E+07 0.000605498
