Se-76(n,g) ENDFB-8.0
Energy(eV) XS(b)
1.00000E-05 4276.30
1.03125E-05 4211.01
1.06250E-05 4148.62
1.09375E-05 4088.93
1.12500E-05 4031.74
1.15625E-05 3976.88
1.18750E-05 3924.20
1.21875E-05 3873.57
1.25000E-05 3824.84
1.28125E-05 3777.91
1.31250E-05 3732.66
1.34375E-05 3689.00
1.37500E-05 3646.84
1.43750E-05 3566.68
1.50000E-05 3491.59
1.56250E-05 3421.04
1.62500E-05 3354.61
1.68750E-05 3291.90
1.75000E-05 3232.58
1.81250E-05 3176.36
1.87500E-05 3122.97
1.93750E-05 3072.19
2.00000E-05 3023.80
2.09375E-05 2955.33
2.18750E-05 2891.31
2.28125E-05 2831.27
2.37500E-05 2774.83
2.46875E-05 2721.63
2.56250E-05 2671.38
2.65625E-05 2623.82
2.75000E-05 2578.71
2.84375E-05 2535.84
2.93750E-05 2495.05
3.03125E-05 2456.16
3.12500E-05 2419.04
3.21875E-05 2383.55
3.31250E-05 2349.58
3.40625E-05 2317.02
3.50000E-05 2285.78
3.59375E-05 2255.77
3.68750E-05 2226.91
3.78125E-05 2199.13
3.87500E-05 2172.36
3.96875E-05 2146.55
4.06250E-05 2121.64
4.25000E-05 2074.31
4.43750E-05 2030.01
4.62500E-05 1988.44
4.81250E-05 1949.32
5.00000E-05 1912.42
5.15625E-05 1883.22
5.31250E-05 1855.32
5.46875E-05 1828.62
5.62500E-05 1803.05
5.78125E-05 1778.51
5.93750E-05 1754.96
6.09375E-05 1732.31
6.25000E-05 1710.52
6.40625E-05 1689.53
6.56250E-05 1669.30
6.71875E-05 1649.77
6.87500E-05 1630.92
7.18750E-05 1595.07
7.50000E-05 1561.48
7.81250E-05 1529.94
8.12500E-05 1500.23
8.43750E-05 1472.18
8.75000E-05 1445.65
9.06250E-05 1420.51
9.37500E-05 1396.63
9.68750E-05 1373.92
0.000100000 1352.28
0.000103125 1331.64
0.000106250 1311.91
0.000109375 1293.03
0.000112500 1274.95
0.000115625 1257.60
0.000118750 1240.94
0.000121875 1224.93
0.000125000 1209.52
0.000128125 1194.68
0.000131250 1180.37
0.000134375 1166.56
0.000137500 1153.23
0.000143750 1127.88
0.000150000 1104.14
0.000156250 1081.83
0.000162500 1060.82
0.000168750 1040.99
0.000175000 1022.23
0.000181250 1004.45
0.000187500 987.568
0.000193750 971.509
0.000200000 956.209
0.000209375 934.556
0.000218750 914.311
0.000228125 895.326
0.000237500 877.477
0.000246875 860.655
0.000256250 844.765
0.000265625 829.723
0.000275000 815.457
0.000284375 801.903
0.000293750 789.003
0.000303125 776.706
0.000312500 764.967
0.000321875 753.744
0.000331250 743.001
0.000340625 732.705
0.000350000 722.826
0.000359375 713.335
0.000368750 704.209
0.000378125 695.424
0.000387500 686.960
0.000396875 678.798
0.000406250 670.920
0.000425000 655.953
0.000443750 641.946
0.000462500 628.799
0.000481250 616.427
0.000500000 604.759
0.000515625 595.525
0.000531250 586.702
0.000546875 578.260
0.000562500 570.172
0.000578125 562.414
0.000593750 554.965
0.000609375 547.804
0.000625000 540.913
0.000640625 534.275
0.000656250 527.877
0.000671875 521.703
0.000687500 515.740
0.000718750 504.404
0.000750000 493.783
0.000781250 483.807
0.000812500 474.412
0.000843750 465.543
0.000875000 457.154
0.000906250 449.203
0.000937500 441.653
0.000968750 434.471
0.00100000 427.629
0.00103125 421.100
0.00106250 414.861
0.00109375 408.891
0.00112500 403.172
0.00115625 397.686
0.00118750 392.419
0.00121875 387.355
0.00125000 382.482
0.00128125 377.789
0.00131250 373.264
0.00134375 368.898
0.00137500 364.682
0.00143750 356.666
0.00150000 349.156
0.00156250 342.102
0.00162500 335.458
0.00168750 329.187
0.00175000 323.255
0.00181250 317.633
0.00187500 312.294
0.00193750 307.216
0.00200000 302.377
0.00209375 295.530
0.00218750 289.127
0.00228125 283.124
0.00237500 277.479
0.00246875 272.159
0.00256250 267.134
0.00265625 262.378
0.00275000 257.866
0.00284375 253.580
0.00293750 249.500
0.00303125 245.612
0.00312500 241.899
0.00321875 238.350
0.00331250 234.953
0.00340625 231.697
0.00350000 228.572
0.00359375 225.571
0.00368750 222.685
0.00378125 219.907
0.00387500 217.230
0.00396875 214.649
0.00406250 212.158
0.00425000 207.425
0.00443750 202.995
0.00462500 198.837
0.00481250 194.925
0.00500000 191.235
0.00515625 188.315
0.00531250 185.525
0.00546875 182.855
0.00562500 180.298
0.00578125 177.844
0.00593750 175.488
0.00609375 173.224
0.00625000 171.045
0.00640625 168.946
0.00656250 166.922
0.00671875 164.970
0.00687500 163.084
0.00718750 159.499
0.00750000 156.140
0.00781250 152.985
0.00812500 150.014
0.00843750 147.209
0.00875000 144.556
0.00906250 142.042
0.00937500 139.654
0.00968750 137.383
0.0100000 135.219
0.0103125 133.154
0.0106250 131.181
0.0109375 129.293
0.0112500 127.484
0.0115625 125.750
0.0118750 124.084
0.0121875 122.482
0.0125000 120.942
0.0128125 119.457
0.0131250 118.027
0.0134375 116.646
0.0137500 115.313
0.0143750 112.778
0.0150000 110.403
0.0156250 108.172
0.0162500 106.071
0.0168750 104.087
0.0175000 102.211
0.0181250 100.433
0.0187500 98.7442
0.0193750 97.1379
0.0200000 95.6075
0.0206625 94.0617
0.0213250 92.5884
0.0219875 91.1823
0.0226500 89.8384
0.0233125 88.5521
0.0239750 87.3196
0.0246375 86.1372
0.0253000 85.0015
0.0264578 83.1202
0.0276156 81.3587
0.0287734 79.7046
0.0299313 78.1475
0.0310891 76.6783
0.0322469 75.2890
0.0334047 73.9726
0.0345625 72.7227
0.0355274 71.7282
0.0364922 70.7732
0.0374570 69.8554
0.0384219 68.9723
0.0393867 68.1217
0.0403516 67.3018
0.0413164 66.5108
0.0422813 65.7470
0.0442109 64.2950
0.0461406 62.9350
0.0480703 61.6577
0.0500000 60.4552
0.0515625 59.5313
0.0531250 58.6486
0.0546875 57.8039
0.0562500 56.9947
0.0578125 56.2187
0.0593750 55.4735
0.0609375 54.7572
0.0625000 54.0680
0.0640625 53.4042
0.0656250 52.7643
0.0671875 52.1469
0.0687500 51.5507
0.0718750 50.4170
0.0750000 49.3547
0.0781250 48.3566
0.0812500 47.4164
0.0843750 46.5289
0.0875000 45.6893
0.0906250 44.8935
0.0937500 44.1378
0.0968750 43.4189
0.100000 42.7341
0.103125 42.0806
0.106250 41.4561
0.109375 40.8586
0.112500 40.2862
0.115625 39.7372
0.118750 39.2100
0.121875 38.7032
0.125000 38.2157
0.128125 37.7461
0.131250 37.2935
0.134375 36.8569
0.137500 36.4352
0.143750 35.6334
0.150000 34.8819
0.156250 34.1757
0.162500 33.5105
0.168750 32.8825
0.175000 32.2885
0.181250 31.7255
0.187500 31.1910
0.193750 30.6827
0.200000 30.1986
0.209375 29.5133
0.218750 28.8722
0.228125 28.2708
0.237500 27.7052
0.246875 27.1722
0.256250 26.6687
0.265625 26.1921
0.275000 25.7400
0.284375 25.3105
0.293750 24.9016
0.303125 24.5119
0.312500 24.1399
0.321875 23.7841
0.331250 23.4436
0.340625 23.1173
0.350000 22.8041
0.359375 22.5032
0.368750 22.2139
0.378125 21.9355
0.387500 21.6673
0.396875 21.4088
0.406250 21.1594
0.425000 20.6854
0.443750 20.2412
0.462500 19.8241
0.500000 19.0625
0.531250 18.4905
0.562500 17.9655
0.593750 17.4823
0.625000 17.0359
0.687500 16.2359
0.750000 15.5379
0.812500 14.9220
0.875000 14.3746
0.937500 13.8826
1.00000 13.4358
1.06250 13.0289
1.12500 12.6563
1.18750 12.3134
1.25000 11.9965
1.37500 11.4285
1.50000 10.9327
1.62500 10.4949
1.75000 10.1057
1.87500 9.75568
2.00000 9.43749
2.18750 9.01222
2.37500 8.63835
2.56250 8.30595
2.75000 8.00844
2.93750 7.73957
3.12500 7.49441
3.31250 7.27013
3.50000 7.06392
3.68750 6.87345
3.87500 6.69679
4.25000 6.37873
4.62500 6.09961
5.00000 5.85227
5.31250 5.66617
5.62500 5.49526
5.93750 5.33777
6.25000 5.19201
6.87500 4.93027
7.50000 4.70125
8.12500 4.49857
8.75000 4.31767
9.37500 4.15469
10.0000 4.00660
10.6250 3.87140
11.2500 3.74728
11.8750 3.63279
12.5000 3.52672
13.7500 3.33598
15.0000 3.16879
16.2500 3.02059
17.5000 2.88808
18.7500 2.76854
20.0000 2.65981
21.8750 2.51386
23.7500 2.38491
25.6250 2.26981
27.5000 2.16630
29.3750 2.07246
31.2500 1.98681
33.1250 1.90826
35.0000 1.83588
36.8750 1.76891
38.7500 1.70669
40.6250 1.64869
42.5000 1.59447
46.2500 1.49584
50.0000 1.40831
53.1250 1.34246
56.2500 1.28208
59.3750 1.22651
62.5000 1.17516
65.6250 1.12755
68.7500 1.08326
71.8750 1.04194
75.0000 1.00330
78.1250 0.967070
81.2500 0.933029
84.3750 0.900980
87.5000 0.870775
93.7500 0.815207
100.000 0.765273
106.250 0.720183
112.500 0.679274
118.750 0.642002
125.000 0.607916
131.250 0.576639
137.500 0.547852
143.750 0.521286
150.000 0.496708
156.250 0.473918
162.500 0.452742
168.750 0.433031
175.000 0.414652
181.250 0.397489
187.500 0.381441
193.750 0.366419
200.000 0.352350
211.802 0.328152
223.605 0.306698
235.407 0.287670
247.210 0.270857
253.111 0.263210
259.012 0.256133
264.913 0.249454
270.814 0.243297
276.716 0.237751
282.617 0.232779
288.518 0.228437
294.419 0.224812
298.585 0.222797
302.750 0.221245
306.916 0.220189
311.081 0.219728
314.726 0.220169
318.371 0.221082
322.016 0.223012
325.661 0.226142
327.483 0.228196
329.306 0.230749
331.128 0.233706
332.951 0.237218
334.773 0.241493
336.595 0.246286
338.418 0.252123
340.240 0.259038
341.802 0.265990
343.364 0.274068
344.927 0.283484
346.489 0.294503
348.051 0.307465
348.832 0.314803
349.613 0.322776
350.394 0.331406
351.175 0.340929
351.956 0.351388
352.737 0.362881
353.692 0.378530
354.646 0.396212
355.601 0.416283
356.555 0.439177
357.033 0.451846
357.510 0.465431
357.987 0.480022
358.465 0.495718
358.942 0.512632
359.419 0.530889
359.896 0.550635
360.374 0.572031
360.938 0.599692
361.502 0.630203
362.066 0.663981
362.630 0.701657
363.194 0.743843
363.758 0.791202
364.322 0.844601
364.604 0.873884
364.886 0.905093
365.364 0.962812
365.841 1.02751
366.080 1.06285
366.318 1.10038
366.557 1.14032
366.796 1.18285
367.034 1.22822
367.273 1.27667
367.512 1.32852
367.750 1.38405
367.989 1.44365
368.228 1.50768
368.466 1.57661
368.705 1.65091
368.965 1.73884
369.226 1.83475
369.486 1.93977
369.746 2.05505
370.007 2.18204
370.267 2.32225
370.527 2.47764
370.788 2.65047
371.015 2.81823
371.243 3.00352
371.471 3.20897
371.699 3.43761
371.813 3.56174
371.927 3.69308
372.041 3.83221
372.154 3.97976
372.268 4.13643
372.382 4.30300
372.496 4.48033
372.610 4.66941
372.691 4.81231
372.773 4.96200
372.854 5.11931
372.935 5.28436
373.017 5.45810
373.098 5.64072
373.180 5.83332
373.220 5.93349
373.261 6.03612
373.321 6.19215
373.380 6.35456
373.440 6.52371
373.500 6.69968
373.559 6.88348
373.619 7.07493
373.679 7.27515
373.738 7.48396
373.792 7.68245
373.847 7.88887
373.887 8.04961
373.928 8.21551
373.969 8.38678
374.009 8.56368
374.050 8.74646
374.091 8.93539
374.132 9.13074
374.172 9.33232
374.205 9.49925
374.237 9.67034
374.270 9.84682
374.302 10.0278
374.335 10.2146
374.367 10.4063
374.400 10.6037
374.432 10.8069
374.462 10.9994
374.492 11.1965
374.522 11.3992
374.552 11.6077
374.582 11.8230
374.611 12.0438
374.641 12.2711
374.671 12.5052
374.701 12.7472
374.731 12.9958
374.761 13.2529
374.790 13.5171
374.820 13.7907
374.850 14.0720
374.880 14.3625
374.910 14.6625
374.953 15.1174
374.997 15.5949
375.040 16.0967
375.083 16.6244
375.127 17.1800
375.170 17.7656
375.214 18.3835
375.257 19.0348
375.287 19.5063
375.317 19.9950
375.346 20.5054
375.376 21.0352
375.406 21.5892
375.436 22.1651
375.466 22.7661
375.496 23.3940
375.525 24.0527
375.555 24.7397
375.585 25.4592
375.615 26.2134
375.645 27.0076
375.675 27.8390
375.704 28.7133
375.734 29.6337
375.764 30.6069
375.794 31.6303
375.824 32.7151
375.854 33.8585
375.883 35.0735
375.913 36.3573
375.943 37.7201
375.973 39.1685
376.003 40.7151
376.033 42.3575
376.062 44.1096
376.092 45.9808
376.122 47.9885
376.152 50.1304
376.182 52.4255
376.211 54.8869
376.230 56.5496
376.249 58.2898
376.268 60.1115
376.287 62.0191
376.306 64.0171
376.325 66.1103
376.344 68.3036
376.363 70.5898
376.382 72.9985
376.401 75.5233
376.420 78.1700
376.439 80.9296
376.458 83.8374
376.477 86.8855
376.496 90.0805
376.515 93.4108
376.545 99.0060
376.575 105.005
376.605 111.474
376.635 118.401
376.664 125.858
376.694 133.826
376.724 142.356
376.754 151.476
376.784 161.245
376.814 171.624
376.843 182.704
376.873 194.433
376.903 206.907
376.933 220.055
376.963 233.930
376.993 248.536
377.022 263.926
377.052 279.992
377.082 296.772
377.112 314.247
377.142 332.455
377.172 351.240
377.201 370.620
377.231 390.548
377.291 431.875
377.350 474.524
377.470 561.210
377.540 611.100
377.611 657.940
377.670 694.011
377.730 725.829
377.781 748.882
377.831 767.699
377.882 781.927
377.933 791.258
377.966 794.655
378.000 795.740
378.017 795.414
378.072 790.363
378.127 779.357
378.182 762.643
378.236 740.707
378.278 720.731
378.320 698.288
378.362 673.689
378.404 647.326
378.445 620.094
378.486 591.761
378.567 533.127
378.671 457.611
378.723 420.774
378.775 385.119
378.816 358.135
378.857 332.240
378.898 307.540
378.939 284.175
378.980 262.083
379.021 241.405
379.062 222.049
379.102 204.100
379.143 187.444
379.184 172.087
379.225 157.978
379.266 145.087
379.307 133.287
379.348 122.564
379.368 117.550
379.388 112.795
379.409 108.266
379.429 103.954
379.461 97.6809
379.492 91.8742
379.524 86.5017
379.556 81.5479
379.587 76.9519
379.619 72.7020
379.650 68.7718
379.682 65.1472
379.713 61.7818
379.745 58.6655
379.777 55.7779
379.808 53.1081
379.840 50.6218
379.871 48.3115
379.903 46.1624
379.934 44.1670
379.975 41.7747
380.016 39.5845
380.057 37.5747
380.098 35.7306
380.139 34.0261
380.180 32.4548
380.221 30.9958
380.261 29.6447
380.302 28.3847
380.343 27.2101
380.384 26.1129
380.425 25.0885
380.466 24.1257
380.507 23.2235
380.547 22.3725
380.588 21.5727
380.629 20.8160
380.670 20.1010
380.752 18.7850
380.833 17.6010
380.915 16.5310
380.997 15.5590
381.079 14.6750
381.160 13.8674
381.242 13.1273
381.324 12.4463
381.406 11.8195
381.487 11.2399
381.569 10.7040
381.651 10.2061
381.733 9.74383
381.814 9.31322
381.896 8.91139
381.978 8.53535
382.059 8.18374
382.141 7.85404
382.223 7.54446
382.305 7.25302
382.386 6.97897
382.468 6.72063
382.550 6.47679
382.713 6.02819
382.877 5.62598
383.040 5.26391
383.204 4.93697
383.367 4.64036
383.531 4.37074
383.694 4.12464
383.857 3.89964
383.984 3.73860
384.110 3.58775
384.236 3.44623
384.363 3.31329
384.489 3.18823
384.615 3.07044
384.742 2.95934
384.868 2.85443
385.120 2.66139
385.373 2.48815
385.626 2.33210
385.878 2.19106
386.042 2.10687
386.205 2.02775
386.369 1.95328
386.532 1.88316
386.696 1.81697
386.859 1.75450
387.186 1.63950
387.513 1.53626
387.840 1.44328
388.167 1.35921
388.494 1.28295
388.717 1.23494
388.939 1.18985
389.162 1.14747
389.385 1.10759
389.831 1.03457
390.277 0.969475
390.723 0.911100
391.168 0.858501
391.614 0.810965
392.060 0.767895
392.387 0.738816
392.714 0.711667
393.041 0.686273
393.368 0.662484
393.694 0.640167
394.021 0.619203
394.675 0.580912
395.329 0.546863
395.983 0.516455
396.637 0.489180
397.290 0.464618
397.825 0.446291
398.360 0.429389
398.895 0.413791
399.430 0.399378
399.965 0.385957
400.500 0.373431
401.035 0.361744
401.570 0.350834
402.640 0.331073
403.710 0.313685
404.780 0.298296
405.850 0.284605
406.741 0.274312
407.633 0.264905
408.524 0.256283
409.416 0.248356
410.308 0.241051
411.199 0.234299
412.091 0.228059
412.982 0.222335
414.765 0.211880
416.549 0.202744
418.332 0.194710
420.115 0.187596
422.017 0.180855
423.919 0.174851
425.821 0.169469
427.723 0.164617
429.625 0.160219
431.527 0.156229
435.331 0.149203
439.135 0.143199
442.939 0.138007
446.743 0.133459
450.547 0.129427
456.729 0.123758
462.911 0.118912
469.092 0.114657
475.274 0.110936
481.455 0.107576
487.637 0.104516
493.819 0.101710
500.000 0.0991335
507.737 0.0962391
515.474 0.0935426
523.211 0.0910290
530.948 0.0887684
546.422 0.0846798
561.897 0.0811987
577.371 0.0781853
592.845 0.0756681
600.582 0.0745614
608.319 0.0736040
623.793 0.0719768
632.234 0.0713285
640.674 0.0708292
649.114 0.0704811
657.555 0.0703007
667.402 0.0703901
677.249 0.0708077
687.096 0.0715999
692.020 0.0720910
696.943 0.0727578
701.867 0.0735665
706.791 0.0745304
711.714 0.0756632
716.638 0.0769837
721.561 0.0785151
726.485 0.0802852
731.409 0.0823294
736.332 0.0846980
740.904 0.0872514
745.476 0.0901875
750.048 0.0934663
754.620 0.0973107
759.192 0.101736
763.764 0.106870
766.050 0.109746
768.335 0.112847
770.621 0.116194
772.907 0.119821
776.248 0.125696
779.589 0.132341
781.260 0.135971
782.930 0.139877
784.601 0.144015
786.271 0.148458
787.942 0.153219
789.612 0.158291
791.283 0.163787
792.953 0.169642
794.624 0.175977
796.294 0.182721
797.965 0.190086
799.635 0.198065
801.570 0.208154
803.504 0.219270
805.438 0.231558
807.372 0.245185
809.307 0.260350
811.241 0.277290
813.175 0.296293
814.142 0.306672
815.109 0.317699
815.945 0.327772
816.780 0.338379
817.615 0.349608
818.451 0.361513
819.286 0.374125
819.703 0.380709
820.121 0.387489
820.539 0.394477
820.956 0.401679
821.374 0.409108
821.792 0.416770
822.275 0.425948
822.517 0.430663
822.759 0.435466
823.001 0.440359
823.242 0.445343
823.484 0.450422
823.726 0.455594
823.968 0.460868
824.209 0.466242
824.451 0.471721
824.693 0.477304
824.935 0.482998
825.177 0.488805
825.418 0.494726
825.660 0.500762
825.858 0.505794
826.056 0.510907
826.254 0.516105
826.451 0.521389
826.649 0.526766
826.847 0.532230
826.946 0.534997
827.045 0.537788
827.144 0.540602
827.243 0.543441
827.375 0.547264
827.479 0.550325
827.583 0.553410
827.688 0.556524
827.792 0.559666
827.897 0.562837
828.001 0.566038
828.210 0.572527
828.441 0.579842
828.671 0.587308
828.902 0.594931
829.133 0.602714
829.364 0.610663
829.595 0.618781
829.825 0.627074
830.056 0.635542
830.298 0.644617
830.540 0.653901
830.782 0.663401
831.023 0.673119
831.265 0.683071
831.507 0.693260
831.749 0.703693
831.990 0.714374
832.232 0.725319
832.474 0.736534
832.716 0.748026
832.958 0.759805
833.199 0.771881
833.441 0.784264
833.683 0.796964
833.925 0.809992
834.167 0.823359
834.408 0.837078
834.650 0.851161
834.892 0.865615
835.134 0.880465
835.375 0.895720
835.617 0.911395
835.859 0.927499
836.035 0.939503
836.211 0.951745
836.387 0.964248
836.562 0.977003
836.738 0.990032
836.914 1.00333
837.266 1.03077
837.617 1.05941
837.969 1.08930
838.321 1.12052
838.672 1.15315
838.914 1.17645
839.156 1.20049
839.398 1.22531
839.640 1.25092
839.881 1.27738
840.123 1.30471
840.365 1.33296
840.607 1.36215
840.848 1.39236
841.090 1.42361
841.332 1.45596
841.574 1.48946
841.816 1.52416
842.057 1.56012
842.299 1.59740
842.541 1.63605
842.783 1.67618
843.025 1.71784
843.266 1.76110
843.508 1.80607
843.750 1.85281
843.992 1.90144
844.234 1.95205
844.475 2.00473
844.717 2.05963
844.959 2.11687
845.201 2.17657
845.442 2.23886
845.684 2.30393
845.926 2.37193
846.168 2.44304
846.409 2.51741
846.607 2.58091
846.805 2.64683
847.003 2.71536
847.201 2.78661
847.399 2.86077
847.596 2.93793
847.794 3.01828
847.992 3.10200
848.190 3.18932
848.388 3.28037
848.586 3.37540
848.783 3.47465
848.981 3.57839
849.179 3.68690
849.377 3.80047
849.575 3.91943
849.816 4.07268
850.058 4.23518
850.300 4.40768
850.542 4.59102
850.784 4.78611
851.025 4.99395
851.267 5.21570
851.509 5.45248
851.751 5.70592
851.992 5.97747
852.234 6.26889
852.476 6.58215
852.718 6.91946
852.960 7.28334
853.201 7.67662
853.443 8.10232
853.685 8.56445
853.927 9.06704
854.169 9.61487
854.410 10.2134
854.531 10.5337
854.652 10.8691
854.773 11.2206
854.894 11.5892
855.015 11.9760
855.136 12.3822
855.257 12.8092
855.377 13.2578
855.498 13.7304
855.619 14.2283
855.740 14.7531
855.861 15.3069
855.982 15.8917
856.103 16.5097
856.224 17.1635
856.345 17.8551
856.465 18.5885
856.586 19.3666
856.707 20.1926
856.828 21.0704
856.949 22.0042
857.070 22.9984
857.191 24.0581
857.312 25.1876
857.444 26.5085
857.575 27.9290
857.707 29.4582
857.839 31.1060
857.971 32.8833
858.103 34.8017
858.235 36.8737
858.367 39.1108
858.488 41.3214
858.609 43.6953
858.729 46.2438
858.850 48.9784
858.971 51.9103
859.092 55.0501
859.213 58.4071
859.334 61.9861
859.462 66.0360
859.590 70.3477
859.718 74.9190
859.847 79.7412
859.975 84.7985
860.103 90.0664
860.231 95.5108
860.359 101.087
860.711 116.574
860.887 124.061
861.063 131.073
861.238 137.363
861.414 142.687
861.502 144.915
861.590 146.820
861.678 148.381
861.766 149.579
861.883 150.591
862.000 150.913
862.117 150.540
862.213 149.727
862.308 148.472
862.403 146.791
862.498 144.707
862.593 142.244
862.689 139.439
862.784 136.325
862.879 132.940
863.070 125.506
863.260 117.461
863.641 100.697
863.793 94.0857
863.945 87.6822
864.098 81.5501
864.250 75.7378
864.402 70.2725
864.555 65.1769
864.707 60.4504
864.859 56.0865
865.010 52.1200
865.160 48.4767
865.311 45.1363
865.461 42.0792
865.611 39.2792
865.762 36.7184
865.912 34.3726
866.062 32.2253
866.226 30.0843
866.390 28.1357
866.554 26.3585
866.718 24.7352
866.882 23.2490
867.046 21.8876
867.210 20.6375
867.374 19.4877
867.525 18.5127
867.675 17.6068
867.826 16.7639
867.976 15.9789
868.126 15.2459
868.277 14.5614
868.427 13.9206
868.577 13.3206
868.728 12.7576
868.878 12.2288
869.029 11.7317
869.179 11.2642
869.329 10.8233
869.480 10.4078
869.630 10.0152
869.780 9.64444
869.931 9.29342
870.081 8.96103
870.382 8.34735
870.682 7.79414
870.983 7.29382
871.284 6.83976
871.585 6.42676
871.885 6.04995
872.186 5.70526
872.405 5.47262
872.624 5.25404
872.842 5.04833
873.061 4.85450
873.280 4.67166
873.498 4.49899
873.717 4.33574
873.936 4.18121
874.373 3.89589
874.811 3.63875
875.248 3.40623
875.685 3.19534
875.986 3.06153
876.287 2.93603
876.588 2.81814
876.888 2.70726
877.189 2.60281
877.490 2.50437
877.790 2.41146
878.091 2.32368
878.693 2.16201
879.294 2.01685
879.895 1.88601
880.497 1.76767
881.098 1.66028
881.700 1.56256
882.301 1.47337
882.903 1.39177
883.504 1.31690
884.106 1.24809
884.707 1.18469
885.308 1.12622
885.883 1.07453
886.457 1.02643
887.031 0.981566
887.605 0.939654
888.179 0.900476
888.753 0.863815
889.327 0.829467
889.901 0.797246
890.475 0.766985
891.050 0.738534
891.624 0.711757
892.198 0.686530
892.772 0.662744
893.346 0.640296
894.494 0.599059
895.697 0.560529
896.900 0.526189
898.103 0.495551
899.306 0.468222
900.509 0.443894
901.712 0.422337
902.914 0.403400
904.117 0.387021
904.773 0.379173
905.430 0.372121
906.086 0.365902
906.742 0.360574
907.398 0.356219
908.054 0.352944
908.710 0.350891
909.366 0.350264
909.886 0.350989
910.405 0.353027
910.925 0.356645
911.444 0.362187
911.963 0.370127
912.223 0.375191
912.483 0.381121
912.743 0.388047
913.002 0.396125
913.262 0.405546
913.522 0.416546
913.795 0.430147
914.068 0.446237
914.342 0.465355
914.479 0.476262
914.615 0.488195
914.752 0.501298
914.889 0.515708
915.025 0.531593
915.162 0.549156
915.299 0.568635
915.435 0.590319
915.572 0.614559
915.709 0.641763
915.859 0.675818
915.934 0.694732
916.009 0.715092
916.085 0.737072
916.160 0.760874
916.235 0.786744
916.310 0.814937
916.385 0.845885
916.461 0.879993
916.536 0.917800
916.611 0.959975
916.686 1.00735
916.761 1.06096
916.837 1.12208
916.874 1.15594
916.912 1.19221
916.953 1.23502
916.994 1.28150
917.035 1.33207
917.076 1.38719
917.117 1.44739
917.158 1.51327
917.199 1.58547
917.240 1.66472
917.281 1.75204
917.322 1.84790
917.363 1.95347
917.404 2.06982
917.445 2.19813
917.486 2.33967
917.527 2.49583
917.568 2.66812
917.609 2.85815
917.650 3.06768
917.691 3.29857
917.732 3.55281
917.773 3.83252
917.814 4.13993
917.855 4.47738
917.896 4.84732
917.933 5.21730
917.971 5.61877
918.009 6.05379
918.046 6.52447
918.084 7.03292
918.121 7.58128
918.159 8.17167
918.197 8.80618
918.234 9.48685
918.272 10.2156
918.309 10.9944
918.347 11.8248
918.385 12.7086
918.422 13.6470
918.460 14.6413
918.497 15.6895
918.538 16.9009
918.579 18.1811
918.620 19.5300
918.661 20.9471
918.702 22.4313
918.743 23.9808
918.784 25.5933
918.825 27.2659
918.900 30.4768
918.976 33.8479
919.051 37.3422
919.126 40.9155
919.242 46.4703
919.358 51.8722
919.434 55.1752
919.509 58.2449
919.584 61.0248
919.659 63.4469
919.707 64.7814
919.755 65.9347
919.830 67.3623
919.881 68.0476
919.932 68.4926
920.000 68.7064
920.055 68.5579
920.111 68.1231
920.162 67.4598
920.214 66.5590
920.268 65.3819
920.321 63.9757
920.375 62.3551
920.429 60.5390
920.507 57.5901
920.585 54.3404
920.692 49.5124
920.799 44.4480
920.906 39.3193
921.014 34.2981
921.065 31.9768
921.116 29.7225
921.167 27.5460
921.218 25.4599
921.269 23.4635
921.321 21.5665
921.372 19.7727
921.423 18.0879
921.477 16.4322
921.530 14.8966
921.557 14.1723
921.584 13.4765
921.611 12.8090
921.637 12.1693
921.664 11.5546
921.691 10.9691
921.718 10.4097
921.745 9.87589
921.772 9.36699
921.798 8.88233
921.825 8.42119
921.852 7.98284
921.896 7.31210
921.940 6.69718
921.984 6.13472
922.006 5.87269
922.027 5.62246
922.049 5.38255
922.071 5.15473
922.093 4.93651
922.115 4.72947
922.137 4.53133
922.159 4.34351
922.181 4.16469
922.203 3.99452
922.225 3.83190
922.247 3.67797
922.269 3.53097
922.291 3.39190
922.313 3.25916
922.335 3.13365
922.378 2.90122
922.422 2.69122
922.466 2.50203
922.510 2.33164
922.554 2.17851
922.581 2.09208
922.608 2.01129
922.634 1.93547
922.661 1.86429
922.688 1.79745
922.715 1.73466
922.742 1.67565
922.768 1.62016
922.822 1.51866
922.876 1.42880
922.929 1.34886
922.983 1.27753
923.037 1.21355
923.090 1.15617
923.144 1.10441
923.197 1.05753
923.251 1.01490
923.305 0.975991
923.358 0.940327
923.412 0.907516
923.500 0.859060
923.587 0.816186
923.675 0.777841
923.763 0.743369
923.851 0.712105
923.938 0.683651
924.026 0.657596
924.114 0.633634
924.202 0.611489
924.289 0.591003
924.377 0.571951
924.465 0.554227
924.640 0.522182
924.816 0.494039
924.952 0.474403
925.089 0.456478
925.225 0.440056
925.362 0.424964
925.498 0.411053
925.635 0.398195
925.771 0.386280
925.908 0.375218
926.181 0.355290
926.454 0.337867
926.727 0.322514
926.999 0.308895
927.272 0.296729
927.545 0.285805
927.818 0.275943
928.091 0.267003
928.364 0.258856
928.637 0.251405
928.910 0.244565
929.183 0.238264
929.729 0.227024
930.275 0.217281
930.821 0.208730
931.367 0.201154
931.991 0.193477
932.615 0.186662
933.239 0.180556
933.863 0.175044
934.487 0.170036
935.111 0.165461
936.358 0.157329
937.606 0.150255
938.854 0.144028
940.102 0.138477
941.350 0.133473
942.676 0.128649
944.002 0.124249
945.328 0.120208
946.653 0.116476
949.305 0.109815
951.957 0.103927
954.609 0.0987044
957.260 0.0940275
959.912 0.0898071
962.564 0.0859747
964.904 0.0828721
967.243 0.0799992
969.583 0.0773307
971.923 0.0748452
974.263 0.0725241
976.602 0.0703518
978.942 0.0683151
981.282 0.0664296
985.962 0.0629189
990.641 0.0597898
995.321 0.0569856
1000.00 0.0544567
1004.10 0.0524398
1008.20 0.0506098
1012.30 0.0488896
1016.40 0.0473228
1020.50 0.0458360
1024.60 0.0444779
1032.79 0.0420043
1040.99 0.0398526
1049.19 0.0379498
1057.39 0.0362506
1065.59 0.0347299
1071.32 0.0337628
1077.06 0.0328641
1088.54 0.0312426
1100.02 0.0298463
1105.76 0.0291871
1111.50 0.0286091
1117.23 0.0280337
1122.97 0.0275347
1134.45 0.0266069
1145.93 0.0258804
1151.67 0.0256036
1157.40 0.0254067
1163.96 0.0253175
1167.04 0.0253451
1170.11 0.0254384
1173.19 0.0256155
1176.26 0.0259053
1179.34 0.0263431
1182.41 0.0270216
1183.95 0.0274831
1185.48 0.0280543
1187.02 0.0287656
1188.56 0.0296588
1190.20 0.0308784
1191.84 0.0324589
1192.86 0.0337009
1193.89 0.0352129
1194.91 0.0370651
1195.94 0.0393567
1196.96 0.0422398
1197.99 0.0459192
1198.50 0.0481535
1199.01 0.0507116
1199.52 0.0536690
1200.03 0.0571184
1200.55 0.0611856
1201.06 0.0660055
1201.57 0.0717971
1202.08 0.0788097
1202.60 0.0874495
1202.85 0.0925258
1203.11 0.0982249
1203.37 0.104656
1203.62 0.111956
1203.88 0.120295
1204.13 0.129888
1204.42 0.142242
1204.70 0.156950
1204.84 0.165391
1204.98 0.174700
1205.12 0.185010
1205.26 0.196490
1205.40 0.209354
1205.54 0.223879
1205.68 0.240436
1205.83 0.259533
1205.97 0.281878
1206.11 0.308486
1206.25 0.340818
1206.32 0.359619
1206.39 0.380680
1206.46 0.404767
1206.53 0.431698
1206.60 0.462845
1206.67 0.498037
1206.74 0.539134
1206.81 0.585970
1206.88 0.641069
1206.95 0.704240
1207.02 0.778899
1207.09 0.864764
1207.13 0.914327
1207.16 0.966414
1207.20 1.02265
1207.23 1.08335
1207.27 1.15081
1207.31 1.22164
1207.34 1.29802
1207.38 1.38035
1207.41 1.46905
1207.45 1.56454
1207.48 1.66728
1207.52 1.77775
1207.56 1.93191
1207.61 2.10072
1207.65 2.28530
1207.70 2.48679
1207.74 2.70637
1207.79 2.94524
1207.83 3.20462
1207.87 3.47921
1207.92 3.78269
1207.96 4.11023
1208.01 4.46298
1208.05 4.83332
1208.10 5.23908
1208.14 5.67309
1208.19 6.13619
1208.23 6.61782
1208.27 6.99808
1208.30 7.38260
1208.33 7.78277
1208.36 8.19867
1208.43 9.07768
1208.49 10.0191
1208.55 11.0216
1208.62 12.0825
1208.68 13.1982
1208.75 14.3640
1208.82 15.7086
1208.89 17.0777
1209.03 19.9189
1209.17 22.7772
1209.31 25.5226
1209.38 26.8179
1209.45 28.0141
1209.52 29.1278
1209.59 30.1115
1209.66 30.9327
1209.73 31.6246
1209.80 32.1984
1209.87 32.6108
1209.92 32.8087
1209.97 32.9110
1210.00 32.9284
1210.05 32.8847
1210.10 32.7566
1210.15 32.5500
1210.19 32.2717
1210.24 31.9035
1210.29 31.4684
1210.34 30.9517
1210.39 30.3783
1210.45 29.4746
1210.52 28.4780
1210.62 26.8495
1210.71 25.0663
1210.81 23.1549
1210.91 21.2007
1211.09 17.6372
1211.17 15.9056
1211.26 14.2395
1211.32 13.1154
1211.39 12.0386
1211.45 11.0133
1211.51 10.0429
1211.55 9.37422
1211.60 8.75006
1211.64 8.15550
1211.69 7.59065
1211.74 6.94955
1211.79 6.35091
1211.85 5.79390
1211.90 5.27743
1211.95 4.83484
1212.00 4.42453
1212.05 4.04520
1212.09 3.70226
1212.14 3.37998
1212.19 3.09005
1212.22 2.94865
1212.24 2.81885
1212.26 2.69468
1212.29 2.57597
1212.31 2.45791
1212.34 2.34977
1212.38 2.14801
1212.43 1.96084
1212.48 1.79450
1212.53 1.64069
1212.58 1.50443
1212.63 1.37880
1212.68 1.26778
1212.72 1.17357
1212.76 1.08990
1212.81 1.01386
1212.85 0.944776
1212.90 0.880671
1212.94 0.823807
1212.99 0.772159
1213.03 0.725234
1213.07 0.681659
1213.12 0.642951
1213.16 0.607718
1213.21 0.575616
1213.29 0.519588
1213.38 0.472709
1213.47 0.432808
1213.56 0.399347
1213.65 0.370395
1213.74 0.345684
1213.83 0.323911
1213.91 0.304987
1214.00 0.288197
1214.09 0.273182
1214.25 0.249534
1214.41 0.229691
1214.57 0.212648
1214.73 0.197821
1214.89 0.184790
1215.04 0.173242
1215.20 0.162941
1215.36 0.153699
1215.52 0.145367
1215.68 0.137823
1216.00 0.124711
1216.32 0.113736
1216.63 0.104446
1216.94 0.0969009
1217.24 0.0903694
1217.54 0.0846385
1217.84 0.0796124
1218.14 0.0751492
1218.44 0.0711908
1219.04 0.0644680
1219.64 0.0589889
1220.24 0.0544760
1220.84 0.0507027
1221.44 0.0475251
1222.01 0.0449616
1222.57 0.0427467
1223.14 0.0408178
1223.70 0.0391273
1224.55 0.0369471
1225.40 0.0351104
1226.25 0.0335469
1227.09 0.0322070
1228.51 0.0303623
1229.92 0.0288886
1231.33 0.0276889
1232.75 0.0267058
1234.73 0.0255852
1236.71 0.0246780
1238.68 0.0239374
1240.66 0.0233219
1242.64 0.0228022
1244.62 0.0223574
1248.58 0.0216343
1252.54 0.0210785
1256.49 0.0206159
1260.45 0.0202323
1264.41 0.0199080
1269.50 0.0195560
1274.59 0.0192653
1284.76 0.0188113
1294.94 0.0185042
1300.03 0.0184211
1305.12 0.0183964
1308.80 0.0184265
1312.47 0.0185112
1316.15 0.0186553
1319.82 0.0189071
1323.50 0.0193058
1327.17 0.0199330
1329.01 0.0203748
1330.85 0.0209377
1332.68 0.0216633
1334.52 0.0225972
1335.79 0.0234186
1337.07 0.0244427
1338.34 0.0257263
1339.61 0.0273585
1340.88 0.0294714
1342.15 0.0322558
1342.79 0.0339940
1343.43 0.0360422
1344.06 0.0384799
1344.70 0.0414089
1345.30 0.0447520
1345.90 0.0488172
1346.50 0.0538277
1347.10 0.0600890
1347.40 0.0638430
1347.70 0.0680931
1348.00 0.0729687
1348.30 0.0785649
1348.60 0.0850833
1348.90 0.0926933
1349.20 0.101696
1349.50 0.112476
1349.77 0.123906
1350.03 0.137687
1350.30 0.154646
1350.43 0.164749
1350.56 0.176138
1350.70 0.189326
1350.83 0.204578
1350.96 0.222775
1351.09 0.244546
1351.23 0.271497
1351.36 0.304983
1351.43 0.325292
1351.49 0.347974
1351.56 0.373758
1351.62 0.403157
1351.70 0.442271
1351.77 0.487378
1351.85 0.540138
1351.92 0.601920
1352.00 0.674294
1352.07 0.759044
1352.11 0.807342
1352.15 0.858187
1352.19 0.914622
1352.22 0.973976
1352.26 1.03978
1352.30 1.11085
1352.34 1.18753
1352.38 1.26796
1352.41 1.35686
1352.45 1.44993
1352.49 1.55263
1352.53 1.65994
1352.56 1.77810
1352.60 1.90131
1352.64 2.03667
1352.68 2.17749
1352.71 2.33183
1352.75 2.49200
1352.79 2.66711
1352.83 2.84837
1352.87 3.09455
1352.92 3.35348
1352.97 3.63717
1353.01 3.93423
1353.06 4.25821
1353.10 4.59587
1353.15 4.95435
1353.20 5.33399
1353.24 5.74401
1353.29 6.16710
1353.34 6.62165
1353.38 7.08818
1353.43 7.58666
1353.48 8.09542
1353.52 8.62419
1353.57 9.17217
1353.67 10.3989
1353.76 11.6820
1353.86 13.0176
1353.96 14.3864
1354.10 16.3872
1354.24 18.3285
1354.34 19.5964
1354.43 20.7518
1354.51 21.5998
1354.59 22.3489
1354.64 22.7581
1354.69 23.1213
1354.74 23.4361
1354.79 23.6955
1354.83 23.9045
1354.88 24.0590
1354.93 24.1709
1354.99 24.2200
1355.00 24.2223
1355.05 24.1899
1355.10 24.0944
1355.19 23.8048
1355.27 23.3553
1355.36 22.7712
1355.43 22.1113
1355.51 21.3595
1355.59 20.4272
1355.68 19.4181
1355.80 17.8141
1355.92 16.1182
1356.09 13.7354
1356.17 12.5602
1356.26 11.4286
1356.29 11.0292
1356.35 10.2355
1356.42 9.27381
1356.50 8.37398
1356.58 7.52754
1356.61 7.12533
1356.65 6.73749
1356.69 6.32576
1356.74 5.93194
1356.78 5.55608
1356.82 5.19812
1356.86 4.85792
1356.90 4.53526
1356.95 4.22984
1356.99 3.94800
1357.03 3.67559
1357.07 3.41920
1357.11 3.17836
1357.16 2.95252
1357.20 2.74112
1357.24 2.54358
1357.28 2.35929
1357.32 2.19158
1357.36 2.03168
1357.41 1.88320
1357.45 1.74552
1357.49 1.61804
1357.53 1.50017
1357.57 1.39131
1357.62 1.29090
1357.66 1.20050
1357.70 1.11518
1357.74 1.03673
1357.78 0.964667
1357.83 0.898517
1357.87 0.837840
1357.91 0.782219
1357.95 0.731258
1357.99 0.685650
1358.03 0.642829
1358.08 0.603630
1358.16 0.534905
1358.24 0.477291
1358.33 0.429444
1358.41 0.388637
1358.50 0.354158
1358.58 0.324889
1358.66 0.300177
1358.74 0.279625
1358.82 0.261726
1358.90 0.246033
1358.98 0.232178
1359.14 0.208835
1359.30 0.189897
1359.46 0.174163
1359.62 0.160826
1359.78 0.149337
1359.94 0.139370
1360.10 0.130527
1360.26 0.122668
1360.58 0.109316
1360.90 0.0984196
1361.22 0.0894084
1361.57 0.0811406
1361.92 0.0742376
1362.27 0.0683894
1362.62 0.0633855
1362.97 0.0590555
1363.32 0.0553022
1363.67 0.0520174
1364.02 0.0491260
1364.72 0.0442872
1365.42 0.0404371
1366.12 0.0373122
1366.82 0.0347396
1367.56 0.0324999
1368.29 0.0306202
1369.02 0.0290289
1369.75 0.0276703
1371.21 0.0254873
1372.67 0.0238352
1374.50 0.0222620
1376.33 0.0210548
1378.16 0.0201145
1379.98 0.0193670
1381.81 0.0187603
1383.64 0.0182601
1387.29 0.0174980
1390.95 0.0169257
1394.60 0.0164886
1398.26 0.0161447
1401.91 0.0158677
1405.81 0.0156268
1409.71 0.0154309
1417.50 0.0151378
1425.30 0.0149539
1433.10 0.0148870
1437.00 0.0149106
1440.89 0.0149866
1444.79 0.0151359
1448.69 0.0153939
1452.59 0.0158156
1454.54 0.0161204
1456.49 0.0165248
1458.44 0.0170602
1460.39 0.0177817
1462.33 0.0187768
1464.28 0.0201707
1465.32 0.0211564
1466.36 0.0223975
1467.39 0.0239770
1468.43 0.0260179
1469.46 0.0287141
1469.98 0.0303980
1470.50 0.0323759
1471.02 0.0347347
1471.53 0.0375754
1472.05 0.0410382
1472.57 0.0453096
1473.03 0.0499851
1473.48 0.0557961
1473.94 0.0631621
1474.17 0.0676092
1474.40 0.0727160
1474.62 0.0786623
1474.85 0.0856057
1475.08 0.0939111
1475.31 0.103966
1475.54 0.116609
1475.77 0.132994
1475.88 0.143241
1475.99 0.155369
1476.11 0.169915
1476.22 0.187589
1476.32 0.206189
1476.42 0.228616
1476.52 0.255829
1476.62 0.289011
1476.72 0.329599
1476.82 0.379330
1476.87 0.408561
1476.92 0.440265
1476.97 0.476053
1477.01 0.514828
1477.06 0.558541
1477.11 0.605826
1477.16 0.659031
1477.21 0.716457
1477.26 0.780915
1477.31 0.850302
1477.36 0.927960
1477.41 1.01130
1477.46 1.10426
1477.51 1.20368
1477.56 1.31418
1477.61 1.43190
1477.66 1.56222
1477.71 1.70048
1477.76 1.85289
1477.81 2.01389
1477.86 2.19056
1477.91 2.37632
1477.96 2.57919
1478.00 2.79145
1478.05 3.02212
1478.10 3.26224
1478.15 3.52181
1478.20 3.79058
1478.25 4.07954
1478.30 4.37706
1478.35 4.69511
1478.40 5.02068
1478.45 5.36665
1478.50 5.71863
1478.60 6.46605
1478.71 7.38698
1478.83 8.34193
1479.06 10.3016
1479.21 11.5715
1479.28 12.1728
1479.36 12.7412
1479.44 13.3219
1479.53 13.8429
1479.60 14.2197
1479.66 14.5411
1479.75 14.8636
1479.83 15.0960
1479.92 15.2482
1480.00 15.2878
1480.00 15.2877
1480.02 15.2857
1480.03 15.2818
1480.05 15.2682
1480.10 15.2176
1480.20 15.0292
1480.25 14.8625
1480.31 14.6567
1480.36 14.4135
1480.42 14.1404
1480.49 13.7110
1480.57 13.2273
1480.68 12.4300
1480.79 11.5621
1480.97 10.1214
1481.14 8.64140
1481.29 7.36394
1481.37 6.75087
1481.44 6.16863
1481.52 5.60527
1481.59 5.07161
1481.67 4.56979
1481.74 4.10718
1481.81 3.69979
1481.85 3.50466
1481.89 3.32229
1481.92 3.14224
1481.96 2.97444
1481.99 2.80921
1482.03 2.65563
1482.06 2.50481
1482.10 2.36498
1482.13 2.22801
1482.17 2.10135
1482.21 1.97757
1482.24 1.86339
1482.28 1.75508
1482.31 1.65246
1482.35 1.55265
1482.38 1.46098
1482.42 1.37201
1482.45 1.29048
1482.49 1.21150
1482.52 1.13928
1482.59 1.00749
1482.66 0.889737
1482.74 0.786458
1482.81 0.696156
1482.88 0.618457
1482.95 0.545367
1483.03 0.482567
1483.10 0.428710
1483.18 0.382585
1483.26 0.343111
1483.33 0.309332
1483.41 0.280409
1483.48 0.255915
1483.56 0.234570
1483.64 0.216185
1483.71 0.200293
1483.79 0.186501
1483.94 0.163934
1484.09 0.146511
1484.24 0.132558
1484.39 0.121202
1484.55 0.111754
1484.70 0.103787
1485.00 0.0908221
1485.30 0.0807525
1485.63 0.0721457
1485.95 0.0651568
1486.28 0.0593822
1486.60 0.0545585
1486.92 0.0504577
1487.25 0.0469485
1487.89 0.0412896
1488.54 0.0369375
1489.19 0.0335197
1489.84 0.0307773
1490.48 0.0285509
1491.13 0.0267154
1491.78 0.0251889
1493.07 0.0227947
1494.37 0.0210115
1495.66 0.0196515
1496.96 0.0185912
1498.25 0.0177473
1499.55 0.0170644
1500.84 0.0165085
1502.46 0.0159411
1504.08 0.0154691
1507.32 0.0147538
1510.56 0.0142405
1513.79 0.0138697
1517.03 0.0135555
1520.27 0.0133135
1526.74 0.0129372
1533.22 0.0126622
1539.69 0.0124460
1552.64 0.0121170
1563.00 0.0119163
1573.36 0.0117559
1583.72 0.0116339
1594.08 0.0115603
1603.15 0.0115627
1607.68 0.0116061
1612.21 0.0116975
1616.75 0.0118678
1621.28 0.0121549
1623.54 0.0123935
1625.81 0.0127300
1628.08 0.0132170
1630.34 0.0139313
1631.64 0.0145074
1632.93 0.0152849
1634.23 0.0163518
1635.52 0.0178592
1636.82 0.0200741
1637.46 0.0216085
1638.11 0.0235750
1638.76 0.0261611
1639.41 0.0296455
1640.05 0.0345379
1640.38 0.0377838
1640.70 0.0418087
1641.05 0.0473668
1641.39 0.0550590
1641.56 0.0602026
1641.73 0.0666867
1641.91 0.0750978
1642.08 0.0863122
1642.25 0.101620
1642.42 0.122883
1642.51 0.136530
1642.59 0.152717
1642.68 0.171922
1642.77 0.194696
1642.85 0.221663
1642.94 0.253530
1643.02 0.291086
1643.11 0.335200
1643.20 0.386818
1643.28 0.446956
1643.37 0.516691
1643.45 0.597141
1643.53 0.678068
1643.61 0.769040
1643.68 0.870824
1643.76 0.984148
1643.83 1.10968
1643.91 1.24801
1643.99 1.39962
1644.06 1.56258
1644.14 1.74143
1644.21 1.93408
1644.29 2.14033
1644.36 2.35974
1644.44 2.59162
1644.52 2.83501
1644.59 3.08869
1644.67 3.34764
1644.80 3.81878
1644.93 4.29610
1645.06 4.77373
1645.19 5.22989
1645.26 5.46427
1645.34 5.68649
1645.41 5.89414
1645.48 6.08234
1645.57 6.30123
1645.66 6.48208
1645.72 6.57415
1645.77 6.64949
1645.83 6.70933
1645.88 6.75320
1645.98 6.79087
1646.00 6.79211
1646.01 6.79191
1646.03 6.78900
1646.06 6.78299
1646.11 6.76156
1646.17 6.71271
1646.26 6.60700
1646.32 6.51441
1646.38 6.40652
1646.47 6.21892
1646.55 6.00305
1646.63 5.79004
1646.71 5.55905
1646.78 5.31298
1646.86 5.05827
1647.00 4.55764
1647.14 4.04789
1647.28 3.54235
1647.42 3.05551
1647.50 2.78705
1647.58 2.53056
1647.66 2.28743
1647.74 2.05874
1647.82 1.84520
1647.90 1.64721
1647.98 1.46490
1648.07 1.29814
1648.15 1.14658
1648.23 1.00968
1648.31 0.886776
1648.39 0.777062
1648.47 0.679669
1648.55 0.593674
1648.63 0.518128
1648.71 0.452080
1648.81 0.387402
1648.90 0.332460
1648.99 0.286016
1649.08 0.246926
1649.17 0.214144
1649.27 0.186734
1649.36 0.163864
1649.45 0.144993
1649.54 0.129082
1649.63 0.115814
1649.82 0.0955328
1650.00 0.0810752
1650.18 0.0706486
1650.37 0.0628220
1650.55 0.0568212
1650.92 0.0481095
1651.28 0.0420108
1651.65 0.0374357
1652.00 0.0340402
1652.34 0.0312796
1653.03 0.0270823
1653.72 0.0240613
1654.42 0.0218089
1655.11 0.0200832
1655.80 0.0187355
1657.18 0.0167751
1658.56 0.0154265
1659.95 0.0144636
1661.33 0.0137533
1662.71 0.0132197
1664.96 0.0125841
1667.20 0.0121244
1669.45 0.0117860
1671.70 0.0115283
1676.19 0.0111773
1680.68 0.0109229
1685.17 0.0107409
1689.67 0.0106035
1698.65 0.0104058
1707.64 0.0102542
1716.62 0.0101326
1734.59 0.00994154
1753.94 0.00978193
1773.30 0.00964915
1812.00 0.00944393
1850.71 0.00930949
1870.06 0.00926893
1889.41 0.00924808
1917.06 0.00926132
1930.88 0.00928525
1944.71 0.00933050
1958.53 0.00938833
1972.35 0.00947501
1986.18 0.00958401
2000.00 0.00973613
2015.92 0.00998482
2023.87 0.0101515
2031.83 0.0103589
2039.79 0.0106221
2047.75 0.0109564
2055.70 0.0114141
2059.68 0.0117067
2063.66 0.0120581
2069.28 0.0126856
2074.90 0.0135507
2077.71 0.0141117
2080.51 0.0147915
2083.32 0.0156286
2086.13 0.0166722
2088.71 0.0178804
2091.28 0.0194266
2093.85 0.0214482
2095.14 0.0227009
2096.43 0.0241643
2098.30 0.0267782
2099.24 0.0283579
2100.17 0.0301661
2101.11 0.0322496
2102.05 0.0346714
2102.98 0.0375128
2103.92 0.0408765
2104.56 0.0435629
2105.21 0.0466167
2105.85 0.0501086
2106.49 0.0541211
2107.14 0.0587796
2107.78 0.0642142
2108.42 0.0706305
2109.07 0.0782571
2109.48 0.0839063
2109.89 0.0902815
2110.30 0.0975536
2110.70 0.105862
2111.11 0.115470
2111.52 0.126616
2111.93 0.139725
2112.34 0.155227
2112.66 0.169565
2112.99 0.186249
2113.31 0.205866
2113.63 0.229220
2113.79 0.242644
2113.95 0.257482
2114.11 0.273983
2114.27 0.292465
2114.44 0.313351
2114.60 0.337201
2114.76 0.364777
2114.92 0.396902
2115.02 0.420712
2115.12 0.447255
2115.23 0.477645
2115.33 0.512007
2115.43 0.551902
2115.53 0.597620
2115.63 0.650803
2115.74 0.712995
2115.84 0.786820
2115.94 0.873064
2115.99 0.922884
2116.04 0.976071
2116.10 1.03394
2116.15 1.09691
2116.20 1.16686
2116.25 1.24158
2116.30 1.32289
2116.35 1.41135
2116.40 1.50757
2116.45 1.61217
2116.50 1.72583
2116.56 1.84925
2116.62 2.02469
2116.69 2.21942
2116.75 2.43526
2116.82 2.67409
2116.85 2.80274
2116.89 2.93789
2116.92 3.07978
2116.95 3.22868
2116.98 3.38485
2117.02 3.54856
2117.05 3.72009
2117.08 3.89412
2117.12 4.08181
2117.15 4.27811
2117.18 4.48329
2117.21 4.69761
2117.28 5.15475
2117.35 5.64377
2117.41 6.18167
2117.48 6.76310
2117.54 7.38977
2117.61 8.05262
2117.65 8.49461
2117.69 8.94391
2117.73 9.41129
2117.77 9.89690
2117.81 10.4137
2117.85 10.9364
2117.93 12.0370
2118.01 13.2254
2118.09 14.4706
2118.17 15.8006
2118.25 17.1785
2118.31 18.1603
2118.36 19.1677
2118.42 20.1985
2118.47 21.2501
2118.58 23.4035
2118.69 25.5817
2118.85 28.8160
2119.01 31.9551
2119.09 33.3499
2119.17 34.7986
2119.25 36.1714
2119.33 37.4693
2119.41 38.6602
2119.53 40.2454
2119.61 41.0976
2119.69 41.8119
2119.77 42.3621
2119.85 42.7515
2119.91 42.9305
2119.97 43.0212
2120.00 43.0333
2120.03 43.0183
2120.10 42.9072
2120.16 42.6932
2120.23 42.3114
2120.31 41.7925
2120.38 41.1321
2120.46 40.3434
2120.53 39.4343
2120.61 38.4141
2120.72 36.7385
2120.83 34.8985
2120.90 33.5290
2120.98 32.1220
2121.13 29.1908
2121.28 26.1824
2121.43 23.1849
2121.58 20.2563
2121.65 18.8556
2121.73 17.4996
2121.80 16.1939
2121.88 14.9432
2121.95 13.7511
2122.03 12.6202
2122.11 11.4562
2122.19 10.3690
2122.28 9.35878
2122.32 8.88240
2122.36 8.42496
2122.40 7.98623
2122.44 7.56596
2122.48 7.16384
2122.52 6.77955
2122.56 6.41269
2122.60 6.06289
2122.64 5.72971
2122.68 5.42025
2122.72 5.14012
2122.76 4.87312
2122.80 4.61884
2122.84 4.38311
2122.87 4.15277
2122.91 3.93958
2122.95 3.73160
2122.99 3.53939
2123.02 3.35216
2123.06 3.17938
2123.10 3.01132
2123.14 2.85643
2123.17 2.70597
2123.21 2.56749
2123.25 2.43313
2123.29 2.30961
2123.32 2.18990
2123.36 2.07708
2123.40 1.97082
2123.44 1.87332
2123.51 1.69256
2123.59 1.53245
2123.66 1.39080
2123.74 1.26560
2123.81 1.15502
2123.89 1.05736
2123.97 0.963607
2124.05 0.881719
2124.13 0.810124
2124.21 0.747431
2124.30 0.692425
2124.38 0.644040
2124.46 0.601354
2124.54 0.563570
2124.62 0.529999
2124.71 0.500051
2124.79 0.473221
2124.87 0.449077
2125.03 0.407436
2125.20 0.372805
2125.35 0.345666
2125.50 0.322240
2125.65 0.301637
2125.80 0.283339
2125.95 0.266848
2126.10 0.252076
2126.40 0.226450
2126.70 0.204900
2127.00 0.186644
2127.30 0.170904
2127.60 0.157300
2127.93 0.144377
2128.26 0.133135
2128.59 0.123286
2128.91 0.114629
2129.24 0.106931
2129.57 0.100072
2130.22 0.0884287
2130.83 0.0796447
2131.43 0.0722922
2132.03 0.0660628
2132.63 0.0607376
2133.23 0.0561491
2133.83 0.0521670
2134.43 0.0486886
2135.03 0.0456322
2135.80 0.0422498
2136.56 0.0393385
2137.33 0.0368155
2138.09 0.0346152
2139.62 0.0309799
2141.15 0.0281184
2142.35 0.0262765
2143.56 0.0247161
2144.76 0.0233832
2145.96 0.0222364
2148.36 0.0203774
2150.77 0.0189531
2153.06 0.0178884
2155.36 0.0170302
2157.65 0.0163335
2159.95 0.0157631
2164.54 0.0149005
2169.13 0.0143025
2172.62 0.0139690
2176.12 0.0137108
2183.11 0.0133658
2190.11 0.0131821
2197.10 0.0131071
2206.72 0.0131290
2216.33 0.0132532
2225.95 0.0134591
2235.57 0.0137361
2245.18 0.0140722
2254.80 0.0144702
2264.41 0.0149284
2274.03 0.0154475
2283.65 0.0160377
2293.26 0.0166997
2302.88 0.0174442
2312.50 0.0182850
2322.11 0.0192268
2331.73 0.0202946
2341.34 0.0215035
2350.96 0.0228717
2358.83 0.0241385
2366.70 0.0255564
2374.56 0.0271477
2378.50 0.0280079
2382.43 0.0289390
2386.37 0.0299105
2390.30 0.0309639
2394.23 0.0320727
2398.17 0.0332634
2402.10 0.0345193
2406.04 0.0358798
2409.97 0.0373392
2413.90 0.0389067
2418.71 0.0409871
2423.52 0.0432671
2428.33 0.0457748
2433.14 0.0485422
2437.94 0.0516031
2442.75 0.0550043
2447.56 0.0587957
2449.96 0.0608561
2452.37 0.0630289
2454.23 0.0647973
2456.08 0.0666552
2457.94 0.0686025
2459.80 0.0706430
2461.66 0.0727842
2462.59 0.0738936
2463.51 0.0750303
2464.44 0.0761961
2465.37 0.0773922
2466.30 0.0786193
2467.23 0.0798767
2468.43 0.0815541
2469.63 0.0832888
2470.84 0.0850834
2472.04 0.0869408
2473.24 0.0888638
2474.44 0.0908556
2475.64 0.0929194
2476.85 0.0950585
2477.37 0.0960080
2477.88 0.0969708
2478.40 0.0979490
2478.92 0.0989430
2479.44 0.0999532
2479.70 0.100465
2479.96 0.100980
2480.22 0.101501
2480.48 0.102023
2480.74 0.102553
2481.00 0.103084
2481.27 0.103649
2481.54 0.104219
2481.83 0.104824
2482.12 0.105434
2482.41 0.106050
2482.69 0.106669
2482.98 0.107297
2483.27 0.107930
2483.55 0.108569
2483.84 0.109212
2484.28 0.110208
2484.71 0.111216
2485.15 0.112239
2485.59 0.113277
2486.46 0.115399
2487.34 0.117584
2488.21 0.119837
2489.08 0.122155
2489.96 0.124544
2490.83 0.127007
2491.60 0.129226
2492.36 0.131506
2493.13 0.133849
2493.89 0.136257
2494.66 0.138734
2495.42 0.141282
2496.19 0.143904
2496.95 0.146599
2497.55 0.148779
2498.15 0.151006
2498.76 0.153284
2499.36 0.155617
2499.96 0.158005
2500.56 0.160451
2501.16 0.162956
2501.76 0.165522
2502.28 0.167790
2502.80 0.170106
2503.32 0.172472
2503.84 0.174889
2504.36 0.177359
2504.87 0.179882
2505.39 0.182461
2505.91 0.185097
2506.43 0.187793
2506.95 0.190549
2507.47 0.193368
2507.99 0.196251
2508.51 0.199202
2509.03 0.202221
2509.55 0.205311
2510.06 0.208474
2510.67 0.212238
2511.27 0.216101
2511.87 0.220073
2512.47 0.224158
2513.07 0.228360
2513.67 0.232684
2514.27 0.237134
2514.87 0.241716
2515.47 0.246435
2516.08 0.251297
2516.68 0.256306
2517.28 0.261470
2517.88 0.266794
2518.48 0.272285
2519.08 0.277950
2519.68 0.283798
2520.28 0.289834
2520.88 0.296068
2521.48 0.302509
2522.09 0.309165
2522.69 0.316046
2523.29 0.323163
2523.89 0.330525
2524.49 0.338146
2525.09 0.346036
2525.69 0.354209
2526.29 0.362678
2526.89 0.371457
2527.49 0.380562
2528.10 0.390009
2528.70 0.399816
2529.30 0.409982
2529.90 0.420562
2530.50 0.431560
2531.10 0.442997
2531.70 0.454898
2532.30 0.467287
2532.90 0.480192
2533.50 0.493641
2534.10 0.507664
2534.71 0.522296
2535.31 0.537570
2535.91 0.553525
2536.51 0.570202
2537.11 0.587644
2537.71 0.605898
2538.31 0.625014
2538.91 0.645048
2539.43 0.663167
2539.95 0.682021
2540.47 0.701687
2540.99 0.722211
2541.51 0.743645
2542.03 0.766040
2542.55 0.789455
2543.07 0.813950
2543.59 0.839640
2544.10 0.866494
2544.62 0.894635
2545.14 0.924145
2545.66 0.955113
2546.18 0.987642
2546.70 1.02184
2547.22 1.05784
2547.82 1.10192
2548.42 1.14878
2549.02 1.19865
2549.62 1.25177
2550.22 1.30843
2550.82 1.36892
2551.43 1.43361
2552.03 1.50274
2552.63 1.57697
2553.23 1.65666
2553.83 1.74234
2554.43 1.83458
2555.03 1.93406
2555.63 2.04149
2556.23 2.15771
2556.83 2.28362
2557.44 2.42052
2558.04 2.56909
2558.64 2.73087
2559.24 2.90732
2559.84 3.10010
2560.14 3.20335
2560.44 3.31104
2560.74 3.42415
2561.04 3.54221
2561.34 3.66630
2561.64 3.79591
2561.94 3.93223
2562.24 4.07470
2562.54 4.22462
2562.84 4.38136
2563.15 4.54638
2563.45 4.71897
2563.75 4.90069
2564.05 5.09078
2564.35 5.29092
2564.65 5.50022
2564.95 5.72053
2565.25 5.95081
2565.55 6.19300
2565.85 6.44590
2566.15 6.71066
2566.45 6.98759
2566.79 7.31352
2567.12 7.65435
2567.46 8.01222
2567.80 8.38490
2568.13 8.77431
2568.47 9.17751
2568.81 9.59599
2569.14 10.0260
2569.81 10.9180
2570.49 11.8338
2571.16 12.7453
2571.83 13.6158
2572.23 14.0917
2572.63 14.5291
2573.02 14.9186
2573.42 15.2511
2573.81 15.5184
2574.21 15.7136
2574.61 15.8313
2575.00 15.8685
2575.45 15.8112
2575.82 15.6874
2576.19 15.4973
2576.56 15.2453
2576.92 14.9380
2577.29 14.5802
2577.66 14.1812
2578.03 13.7462
2578.39 13.2852
2579.13 12.3079
2579.87 11.3047
2580.60 10.3164
2581.34 9.37290
2581.72 8.90937
2582.09 8.46577
2582.47 8.04078
2582.85 7.63714
2583.23 7.25285
2583.61 6.88974
2583.99 6.54637
2584.37 6.22217
2584.75 5.91563
2585.13 5.62759
2585.51 5.35567
2585.89 5.10045
2586.27 4.85969
2586.65 4.63378
2587.03 4.42123
2587.41 4.22121
2587.80 4.02523
2588.20 3.84115
2588.59 3.66819
2588.98 3.50597
2589.38 3.35298
2589.77 3.20933
2590.17 3.07368
2590.56 2.94614
2590.96 2.82555
2591.35 2.71201
2591.75 2.60449
2592.14 2.50313
2592.54 2.40701
2592.93 2.31625
2593.32 2.23006
2593.72 2.14857
2594.51 1.99750
2595.30 1.86137
2596.09 1.73821
2596.88 1.62648
2597.66 1.52486
2598.45 1.43221
2599.24 1.34754
2600.03 1.26999
2600.57 1.22079
2601.11 1.17434
2601.65 1.13045
2602.18 1.08893
2603.26 1.01241
2604.34 0.943619
2605.41 0.881496
2606.49 0.825176
2607.56 0.773988
2608.64 0.727362
2609.43 0.695773
2610.22 0.666181
2611.01 0.638423
2611.80 0.612353
2612.58 0.587839
2613.37 0.564759
2614.16 0.543007
2614.95 0.522483
2615.74 0.503097
2616.53 0.484768
2618.11 0.450986
2619.69 0.420614
2621.26 0.393212
2622.84 0.368392
2624.42 0.345871
2626.00 0.325361
2627.58 0.306631
2629.15 0.289483
2630.73 0.273745
2632.31 0.259267
2633.89 0.245918
2635.25 0.235215
2636.61 0.225222
2637.98 0.215881
2639.34 0.207102
2640.70 0.198836
2642.07 0.191059
2643.43 0.183737
2644.79 0.176840
2646.15 0.170327
2647.52 0.164175
2650.24 0.152854
2652.97 0.142688
2655.69 0.133531
2657.27 0.128634
2658.85 0.124013
2662.01 0.115509
2665.16 0.107880
2668.32 0.101009
2671.48 0.0947975
2674.63 0.0891681
2677.79 0.0840486
2680.94 0.0793797
2683.10 0.0764279
2685.25 0.0736474
2687.40 0.0710253
2689.55 0.0685498
2693.86 0.0639972
2698.16 0.0599400
2702.46 0.0562649
2706.77 0.0529427
2711.07 0.0499334
2715.37 0.0471997
2718.53 0.0453533
2721.69 0.0436234
2724.84 0.0419997
2728.00 0.0404814
2734.31 0.0377095
2740.62 0.0352572
2746.94 0.0330705
2753.25 0.0311194
2759.56 0.0293702
2765.87 0.0277947
2773.91 0.0260117
2781.94 0.0244403
2789.97 0.0230492
2798.01 0.0218143
2806.04 0.0207282
2814.08 0.0197423
2822.11 0.0188604
2830.14 0.0180720
2842.77 0.0169993
2849.08 0.0165203
2855.39 0.0160869
2868.02 0.0153159
2880.64 0.0146715
2893.27 0.0141268
2905.89 0.0136793
2918.52 0.0133151
2931.14 0.0130240
2942.62 0.0128240
2954.09 0.0126789
2965.57 0.0125854
2977.05 0.0125439
2989.67 0.0125618
3002.30 0.0126418
3014.92 0.0127889
3027.55 0.0130108
3040.17 0.0133069
3052.80 0.0136946
3065.42 0.0141834
3078.05 0.0147875
3084.93 0.0151820
3091.82 0.0156277
3098.70 0.0161192
3105.59 0.0166907
3112.48 0.0173529
3119.36 0.0181322
3126.25 0.0190820
3133.13 0.0202841
3138.87 0.0216386
3141.74 0.0225146
3144.61 0.0236016
3147.48 0.0250103
3150.35 0.0269381
3151.79 0.0282013
3153.22 0.0297471
3154.65 0.0317002
3156.09 0.0342675
3157.13 0.0366895
3158.17 0.0397788
3159.21 0.0438248
3160.25 0.0493077
3160.77 0.0528428
3161.29 0.0571060
3161.81 0.0623470
3162.33 0.0689354
3162.85 0.0774953
3163.37 0.0892496
3163.63 0.0970820
3163.89 0.106984
3164.15 0.119961
3164.41 0.137605
3164.55 0.150246
3164.70 0.165521
3164.84 0.184366
3164.98 0.207412
3165.13 0.236088
3165.27 0.271333
3165.41 0.314922
3165.56 0.368752
3165.69 0.430962
3165.83 0.505804
3165.96 0.596797
3166.03 0.648585
3166.10 0.705235
3166.16 0.768076
3166.23 0.835644
3166.30 0.909211
3166.36 0.989176
3166.43 1.07729
3166.50 1.17139
3166.57 1.27312
3166.63 1.38288
3166.70 1.50293
3166.77 1.63013
3166.84 1.76656
3166.90 1.91258
3166.97 2.07096
3167.04 2.23734
3167.10 2.41426
3167.17 2.60197
3167.24 2.80371
3167.31 3.01371
3167.37 3.23494
3167.44 3.46743
3167.51 3.71489
3167.58 3.96993
3167.64 4.23592
3167.71 4.51261
3167.83 5.02036
3167.94 5.55718
3168.06 6.11977
3168.18 6.69890
3168.41 7.90586
3168.64 9.12940
3168.88 10.3110
3168.99 10.8683
3169.11 11.3863
3169.26 12.0035
3169.41 12.5269
3169.51 12.8127
3169.61 13.0485
3169.71 13.2363
3169.81 13.3700
3169.91 13.4542
3170.00 13.4756
3170.01 13.4755
3170.02 13.4745
3170.03 13.4723
3170.06 13.4650
3170.12 13.4373
3170.21 13.3491
3170.34 13.1569
3170.46 12.8843
3170.57 12.5663
3170.69 12.1926
3170.78 11.8533
3170.87 11.4835
3170.96 11.0866
3171.05 10.6713
3171.21 9.89356
3171.37 9.07743
3171.68 7.41497
3171.83 6.65480
3171.98 5.92670
3172.13 5.23046
3172.20 4.89863
3172.27 4.58295
3172.35 4.27536
3172.42 3.98076
3172.50 3.69949
3172.57 3.43532
3172.64 3.18115
3172.72 2.94385
3172.79 2.71687
3172.86 2.50617
3172.95 2.27450
3173.03 2.06265
3173.12 1.86726
3173.20 1.68767
3173.29 1.52317
3173.37 1.37298
3173.46 1.23629
3173.54 1.11229
3173.63 1.00013
3173.71 0.898974
3173.80 0.807996
3173.88 0.726391
3173.97 0.653379
3174.05 0.588209
3174.14 0.530171
3174.22 0.478591
3174.31 0.432836
3174.39 0.392318
3174.48 0.356490
3174.56 0.324848
3174.73 0.272317
3174.90 0.231514
3175.07 0.199814
3175.24 0.175116
3175.41 0.155761
3175.58 0.140463
3175.82 0.123965
3176.06 0.111636
3176.30 0.102093
3176.54 0.0944786
3177.01 0.0829858
3177.49 0.0745901
3177.97 0.0681139
3178.44 0.0629506
3178.92 0.0587461
3179.39 0.0552692
3180.35 0.0498985
3181.30 0.0460147
3182.25 0.0431239
3183.20 0.0409204
3184.65 0.0384647
3186.11 0.0367625
3187.56 0.0355735
3189.01 0.0347458
3191.91 0.0338103
3194.81 0.0334916
3198.62 0.0336471
3202.43 0.0342027
3206.24 0.0350498
3210.05 0.0361249
3213.86 0.0373959
3217.67 0.0388484
3221.47 0.0404790
3225.28 0.0422917
3229.27 0.0443972
3233.26 0.0467294
3237.26 0.0493119
3241.25 0.0521714
3245.24 0.0553432
3249.23 0.0588669
3253.22 0.0627935
3257.21 0.0671803
3260.02 0.0705873
3262.83 0.0742878
3265.64 0.0783158
3268.45 0.0827079
3271.27 0.0875009
3272.67 0.0900601
3274.08 0.0927457
3275.48 0.0955682
3276.89 0.0985300
3278.30 0.101638
3279.00 0.103250
3279.70 0.104901
3280.70 0.107320
3281.70 0.109830
3282.69 0.112434
3283.69 0.115134
3284.69 0.117940
3285.69 0.120852
3286.68 0.123880
3287.68 0.127025
3288.25 0.128869
3288.82 0.130756
3289.38 0.132685
3289.95 0.134659
3290.52 0.136679
3291.08 0.138747
3291.37 0.139801
3291.65 0.140863
3291.93 0.141939
3292.22 0.143027
3292.44 0.143909
3292.67 0.144800
3292.90 0.145699
3293.12 0.146603
3293.44 0.147890
3293.76 0.149190
3294.08 0.150513
3294.39 0.151849
3294.71 0.153208
3295.03 0.154582
3295.35 0.155975
3295.66 0.157388
3296.07 0.159239
3296.48 0.161121
3296.89 0.163036
3297.30 0.164987
3297.70 0.166975
3298.11 0.168999
3298.52 0.171061
3298.93 0.173162
3299.34 0.175303
3299.74 0.177484
3300.15 0.179707
3300.56 0.181974
3300.97 0.184284
3301.38 0.186639
3301.78 0.189041
3302.19 0.191490
3302.69 0.194552
3303.19 0.197690
3303.69 0.200907
3304.19 0.204205
3304.69 0.207586
3305.19 0.211054
3305.68 0.214612
3306.18 0.218254
3306.68 0.222000
3307.18 0.225844
3307.68 0.229791
3308.18 0.233836
3308.68 0.237999
3309.18 0.242276
3309.67 0.246671
3310.17 0.251180
3310.81 0.257113
3311.44 0.263263
3312.08 0.269640
3312.71 0.276256
3313.35 0.283121
3313.98 0.290248
3314.62 0.297649
3315.25 0.305327
3315.75 0.311583
3316.25 0.318034
3316.75 0.324689
3317.25 0.331556
3317.75 0.338646
3318.25 0.345967
3318.74 0.353529
3319.24 0.361328
3319.74 0.369406
3320.24 0.377759
3320.74 0.386400
3321.24 0.395324
3321.74 0.404581
3322.24 0.414168
3322.73 0.424101
3323.23 0.434375
3323.73 0.445049
3324.23 0.456122
3324.73 0.467614
3325.23 0.479521
3325.73 0.491914
3326.23 0.504794
3326.72 0.518184
3327.22 0.532086
3327.72 0.546582
3328.22 0.561676
3328.72 0.577402
3329.22 0.593761
3329.72 0.610856
3330.22 0.628696
3330.71 0.647323
3331.21 0.666745
3331.67 0.685215
3332.12 0.704414
3332.57 0.724469
3333.03 0.745336
3333.48 0.767157
3333.93 0.789886
3334.39 0.813681
3334.84 0.838494
3335.29 0.864499
3335.75 0.891649
3336.20 0.920135
3336.65 0.949913
3337.11 0.981199
3337.56 1.01395
3338.02 1.04841
3338.47 1.08454
3338.97 1.12650
3339.47 1.17089
3339.97 1.21789
3340.46 1.26771
3340.96 1.32055
3341.46 1.37668
3341.96 1.43633
3342.46 1.49968
3342.96 1.56728
3343.46 1.63938
3343.96 1.71635
3344.45 1.79844
3344.95 1.88645
3345.45 1.98072
3345.95 2.08184
3346.45 2.19019
3346.95 2.30690
3347.45 2.43252
3347.95 2.56788
3348.44 2.71359
3348.94 2.87126
3349.44 3.04170
3349.94 3.22612
3350.44 3.42541
3350.94 3.64179
3351.44 3.87637
3351.94 4.13076
3352.43 4.40603
3352.93 4.70500
3353.43 5.02878
3353.93 5.37896
3354.43 5.75614
3354.74 6.00866
3355.06 6.27191
3355.37 6.54673
3355.68 6.83307
3356.00 7.13171
3356.31 7.44036
3356.62 7.75939
3356.94 8.08802
3357.56 8.77069
3358.19 9.47436
3359.44 10.8754
3359.89 11.3427
3360.33 11.7778
3360.78 12.1696
3361.22 12.5074
3361.67 12.7815
3362.11 12.9831
3362.56 13.1059
3363.00 13.1456
3363.45 13.1008
3363.89 12.9729
3364.26 12.8101
3364.62 12.5993
3364.98 12.3442
3365.34 12.0501
3365.70 11.7225
3366.07 11.3672
3366.43 10.9900
3366.79 10.5968
3367.51 9.78331
3368.24 8.96439
3368.96 8.16907
3369.69 7.41731
3370.06 7.04830
3370.44 6.69529
3370.81 6.35878
3371.19 6.03982
3371.56 5.73662
3371.94 5.45052
3372.32 5.17955
3372.69 4.92462
3373.07 4.68373
3373.44 4.45749
3373.82 4.24397
3374.19 4.04360
3374.57 3.85460
3374.94 3.67726
3375.32 3.50995
3375.69 3.35291
3376.08 3.20201
3376.46 3.06041
3376.84 2.92679
3377.22 2.80129
3377.61 2.68273
3377.99 2.57124
3378.37 2.46579
3378.75 2.36651
3379.14 2.27247
3379.52 2.18381
3379.90 2.09972
3380.28 2.02033
3380.67 1.94493
3381.05 1.87365
3381.81 1.74166
3382.58 1.62259
3383.34 1.51486
3384.11 1.41716
3384.87 1.32842
3385.64 1.24742
3386.40 1.17342
3387.17 1.10565
3387.93 1.04353
3388.49 1.00141
3389.05 0.961820
3389.60 0.924431
3390.16 0.889215
3390.72 0.855893
3391.27 0.824443
3392.38 0.766453
3393.50 0.714212
3394.61 0.667077
3395.72 0.624357
3396.83 0.585603
3397.60 0.560982
3398.36 0.537869
3399.13 0.516146
3399.89 0.495703
3400.66 0.476444
3401.42 0.458281
3402.19 0.441131
3402.95 0.424923
3404.48 0.395067
3406.01 0.368243
3407.54 0.344058
3409.07 0.322192
3410.60 0.302335
3412.13 0.284261
3413.66 0.267764
3415.19 0.252677
3416.72 0.238827
3418.25 0.226090
3419.78 0.214353
3421.31 0.203523
3422.70 0.194388
3424.09 0.185874
3425.48 0.177905
3426.87 0.170432
3428.26 0.163416
3429.66 0.156827
3431.05 0.150635
3432.44 0.144811
3433.83 0.139319
3435.22 0.134138
3436.61 0.129246
3438.00 0.124624
3440.78 0.116100
3443.56 0.108440
3446.62 0.100873
3449.68 0.0940882
3452.74 0.0879812
3455.80 0.0824667
3458.86 0.0774673
3461.92 0.0729239
3464.98 0.0687802
3468.04 0.0649929
3472.49 0.0600367
3476.94 0.0556488
3481.39 0.0517559
3485.84 0.0482767
3490.29 0.0451431
3494.74 0.0423216
3499.19 0.0397716
3503.64 0.0374594
3509.76 0.0346172
3515.88 0.0321076
3522.00 0.0298817
3528.12 0.0278997
3534.24 0.0261244
3540.36 0.0245306
3546.48 0.0230937
3552.60 0.0217928
3560.94 0.0202102
3569.28 0.0188161
3577.63 0.0175816
3585.97 0.0164912
3594.32 0.0155080
3602.66 0.0146265
3611.01 0.0138337
3619.35 0.0131182
3631.59 0.0121917
3643.83 0.0113821
3656.07 0.0106743
3668.30 0.0100559
3680.54 0.00950781
3692.78 0.00902591
3705.02 0.00859964
3717.26 0.00822090
3729.50 0.00788823
3741.74 0.00759401
3753.97 0.00733649
3766.21 0.00711494
3778.45 0.00692564
3790.69 0.00677186
3802.93 0.00665459
3815.17 0.00657723
3824.07 0.00655242
3837.42 0.00657982
3850.77 0.00670501
3864.12 0.00700423
3870.80 0.00725710
3877.47 0.00761348
3883.03 0.00803187
3888.60 0.00861003
3894.16 0.00942919
3899.72 0.0106256
3902.78 0.0115353
3905.84 0.0127085
3908.90 0.0142546
3911.96 0.0163465
3914.05 0.0182262
3916.13 0.0206285
3918.22 0.0237717
3920.31 0.0280031
3921.84 0.0321124
3923.37 0.0374576
3924.13 0.0407565
3924.90 0.0445959
3925.66 0.0491024
3926.42 0.0544346
3927.47 0.0634711
3927.99 0.0689804
3928.51 0.0753194
3929.03 0.0827007
3929.55 0.0913413
3930.08 0.101603
3930.60 0.113894
3930.98 0.124597
3931.36 0.137061
3931.74 0.151844
3932.13 0.169593
3932.51 0.191533
3932.89 0.219415
3933.08 0.236623
3933.27 0.256605
3933.47 0.280229
3933.66 0.308536
3933.79 0.331351
3933.92 0.357341
3934.05 0.387566
3934.18 0.422337
3934.31 0.463119
3934.44 0.510370
3934.57 0.565637
3934.70 0.630382
3934.83 0.706921
3934.96 0.796027
3935.09 0.901294
3935.22 1.02359
3935.35 1.16757
3935.42 1.24767
3935.48 1.33406
3935.55 1.42715
3935.61 1.52736
3935.68 1.63515
3935.74 1.75097
3935.84 1.93773
3935.93 2.14461
3936.03 2.37318
3936.13 2.62230
3936.22 2.89881
3936.32 3.19848
3936.41 3.52915
3936.51 3.88534
3936.60 4.27589
3936.70 4.69386
3936.79 5.14906
3936.89 5.63285
3936.99 6.15600
3937.08 6.70794
3937.18 7.30032
3937.27 7.92049
3937.38 8.64442
3937.48 9.39991
3937.59 10.1995
3937.69 11.0252
3937.79 11.8897
3937.90 12.7726
3938.00 13.6775
3938.11 14.5992
3938.25 15.9284
3938.40 17.2618
3938.55 18.5791
3938.70 19.8502
3938.83 20.9338
3938.96 21.9474
3939.05 22.6474
3939.15 23.2933
3939.25 23.8929
3939.34 24.4288
3939.44 24.9073
3939.53 25.3143
3939.64 25.6796
3939.73 25.9413
3939.83 26.1272
3939.99 26.2493
3940.00 26.2500
3940.06 26.2355
3940.14 26.1616
3940.23 26.0274
3940.35 25.7176
3940.48 25.2807
3940.60 24.7283
3940.72 24.0659
3940.85 23.2970
3940.97 22.4450
3941.12 21.3367
3941.27 20.1421
3941.39 19.0750
3941.52 17.9838
3941.77 15.7467
3942.01 13.5277
3942.14 12.4472
3942.26 11.4090
3942.38 10.4510
3942.50 9.53573
3942.62 8.66738
3942.74 7.85566
3942.86 7.08886
3942.98 6.37522
3943.04 6.03568
3943.10 5.71503
3943.15 5.40740
3943.21 5.11268
3943.28 4.81207
3943.34 4.53019
3943.40 4.26192
3943.46 4.00696
3943.53 3.76119
3943.59 3.53205
3943.65 3.31519
3943.71 3.11021
3943.77 2.91367
3943.84 2.73141
3943.90 2.55978
3943.96 2.39835
3944.02 2.24671
3944.08 2.10441
3944.15 1.97102
3944.21 1.84612
3944.27 1.72746
3944.33 1.61840
3944.40 1.51657
3944.46 1.42158
3944.58 1.24932
3944.71 1.10141
3944.83 0.972676
3944.96 0.862670
3945.08 0.767294
3945.20 0.686011
3945.33 0.615646
3945.45 0.555695
3945.58 0.503744
3945.70 0.459377
3945.83 0.420785
3945.95 0.387657
3946.08 0.358871
3946.20 0.333755
3946.45 0.292197
3946.70 0.259631
3946.95 0.233533
3947.20 0.212147
3947.44 0.194259
3947.69 0.179023
3947.94 0.165848
3948.19 0.154356
3948.64 0.136621
3949.10 0.122118
3949.55 0.109989
3950.00 0.0997524
3950.50 0.0901752
3951.00 0.0820221
3951.49 0.0750156
3951.99 0.0689564
3952.99 0.0590027
3953.98 0.0512460
3954.71 0.0466221
3955.43 0.0426683
3956.88 0.0362985
3958.33 0.0314295
3959.77 0.0276195
3961.77 0.0235995
3963.76 0.0205684
3965.75 0.0182258
3967.74 0.0163773
3970.63 0.0143143
3973.53 0.0127713
3976.43 0.0115832
3979.32 0.0106503
3984.75 0.00937084
3990.18 0.00849397
3995.61 0.00786647
4001.04 0.00740510
4007.20 0.00702048
4013.35 0.00673897
4025.66 0.00638037
4037.96 0.00619149
4050.27 0.00611542
4066.20 0.00613802
4082.13 0.00627336
4098.05 0.00651709
4113.98 0.00688117
4129.91 0.00739315
4137.87 0.00771786
4145.84 0.00809959
4153.80 0.00854721
4161.76 0.00907645
4169.73 0.00970383
4177.69 0.0104487
4185.65 0.0113456
4193.62 0.0124370
4201.58 0.0137773
4209.55 0.0154453
4213.35 0.0163883
4217.15 0.0174470
4220.95 0.0186410
4224.75 0.0199939
4228.55 0.0215351
4232.35 0.0233008
4236.15 0.0253356
4239.95 0.0276871
4243.93 0.0305895
4247.92 0.0340453
4251.90 0.0382007
4253.89 0.0406012
4255.88 0.0432563
4257.87 0.0462065
4259.86 0.0494955
4261.85 0.0531770
4263.84 0.0573163
4265.83 0.0619925
4267.83 0.0673025
4269.82 0.0733665
4271.81 0.0803285
4272.98 0.0849415
4274.16 0.0899718
4275.34 0.0954846
4276.51 0.101539
4277.69 0.108223
4278.87 0.115610
4280.04 0.123818
4281.22 0.132957
4282.30 0.142359
4283.39 0.152820
4284.48 0.164493
4285.56 0.177572
4286.65 0.192312
4287.19 0.200397
4287.73 0.209014
4288.28 0.218211
4288.82 0.228040
4289.36 0.238559
4289.91 0.249815
4290.34 0.259331
4290.77 0.269411
4291.20 0.280101
4291.63 0.291451
4292.06 0.303518
4292.49 0.316363
4292.92 0.330054
4293.13 0.337241
4293.34 0.344633
4293.55 0.351912
4293.75 0.359428
4293.96 0.367191
4294.16 0.375172
4294.25 0.378795
4294.43 0.386244
4294.61 0.393919
4294.93 0.407930
4295.25 0.422712
4295.56 0.438324
4295.88 0.454776
4296.13 0.468410
4296.38 0.482674
4296.63 0.497608
4296.87 0.513255
4297.12 0.529662
4297.37 0.546878
4297.62 0.564958
4297.87 0.583882
4298.12 0.603869
4298.37 0.624913
4298.62 0.647091
4298.87 0.670486
4298.99 0.682717
4299.11 0.695189
4299.24 0.708115
4299.36 0.721302
4299.49 0.734976
4299.61 0.748933
4299.74 0.763297
4299.86 0.778084
4299.99 0.793434
4300.11 0.809121
4300.23 0.825417
4300.36 0.842079
4300.48 0.859399
4300.61 0.877120
4300.73 0.895553
4300.86 0.914425
4300.98 0.934069
4301.11 0.954196
4301.23 0.975160
4301.35 0.996656
4301.48 1.01906
4301.60 1.04205
4301.73 1.06585
4301.85 1.09047
4301.98 1.11618
4302.10 1.14261
4302.23 1.17022
4302.35 1.19863
4302.47 1.22834
4302.60 1.25894
4302.72 1.29097
4302.85 1.32398
4302.97 1.35857
4303.10 1.39427
4303.22 1.43171
4303.35 1.47039
4303.47 1.51100
4303.59 1.55300
4303.72 1.59679
4303.84 1.64248
4303.97 1.69058
4304.09 1.74043
4304.22 1.79297
4304.34 1.84749
4304.47 1.90503
4304.59 1.96481
4304.71 2.02798
4304.84 2.09371
4304.96 2.16326
4305.09 2.23571
4305.21 2.31248
4305.34 2.39256
4305.46 2.47752
4305.59 2.56626
4305.71 2.65975
4305.83 2.75830
4305.94 2.84851
4306.05 2.94215
4306.16 3.04121
4306.26 3.14411
4306.37 3.25304
4306.48 3.36627
4306.59 3.48620
4306.69 3.61092
4306.80 3.74308
4306.91 3.88056
4307.02 4.02627
4307.12 4.17786
4307.23 4.33853
4307.34 4.50566
4307.45 4.68275
4307.55 4.86689
4307.68 5.09346
4307.80 5.33095
4307.93 5.58376
4308.05 5.84838
4308.18 6.12961
4308.30 6.42341
4308.42 6.73240
4308.55 7.05693
4308.67 7.40010
4308.80 7.75662
4308.92 8.13234
4309.05 8.52123
4309.17 8.92942
4309.30 9.35009
4309.42 9.78957
4309.54 10.2402
4309.67 10.7085
4309.79 11.1859
4310.04 12.1785
4310.29 13.2059
4310.54 14.2485
4310.89 15.7295
4311.25 17.1506
4311.42 17.8191
4311.60 18.4431
4311.77 19.0176
4311.95 19.5345
4312.21 20.1825
4312.34 20.4436
4312.48 20.6605
4312.61 20.8324
4312.74 20.9550
4312.87 21.0288
4313.00 21.0530
4313.13 21.0271
4313.26 20.9509
4313.48 20.7212
4313.69 20.3677
4313.91 19.8958
4314.12 19.3208
4314.34 18.6505
4314.55 17.9058
4314.77 17.0991
4314.98 16.2463
4315.21 15.3126
4315.43 14.3663
4315.88 12.4808
4316.11 11.5677
4316.33 10.6935
4316.56 9.85798
4316.78 9.07385
4317.01 8.32507
4317.24 7.63138
4317.47 6.99300
4317.70 6.40881
4317.82 6.13642
4317.93 5.87673
4318.05 5.62937
4318.16 5.39395
4318.28 5.17004
4318.39 4.95719
4318.51 4.75497
4318.62 4.56291
4318.74 4.38056
4318.85 4.20746
4318.97 4.04318
4319.08 3.88725
4319.20 3.73927
4319.31 3.59881
4319.54 3.33993
4319.77 3.10533
4320.00 2.89344
4320.23 2.70173
4320.46 2.52869
4320.63 2.41190
4320.80 2.30354
4320.96 2.20226
4321.13 2.10748
4321.30 2.01817
4321.47 1.93491
4321.63 1.85671
4321.80 1.78319
4321.97 1.71357
4322.13 1.64836
4322.30 1.58684
4322.47 1.52874
4322.64 1.47348
4322.80 1.42150
4323.14 1.32554
4323.37 1.26506
4323.60 1.20868
4323.83 1.15602
4324.06 1.10676
4324.29 1.06063
4324.52 1.01735
4324.75 0.976691
4324.98 0.938451
4325.21 0.902437
4325.44 0.868479
4325.90 0.806127
4326.36 0.750323
4326.82 0.700279
4327.28 0.655035
4327.74 0.614082
4328.20 0.576892
4328.66 0.543015
4329.12 0.512069
4329.58 0.483724
4330.04 0.457695
4330.50 0.433787
4330.91 0.413625
4331.33 0.394854
4331.75 0.377345
4332.17 0.360987
4333.00 0.331335
4333.84 0.305221
4334.68 0.282103
4335.51 0.261540
4336.35 0.243171
4337.18 0.226713
4338.10 0.210467
4339.02 0.195931
4339.94 0.182871
4340.86 0.171107
4341.78 0.160449
4342.70 0.150775
4343.62 0.141965
4344.54 0.133929
4345.88 0.123421
4347.22 0.114135
4348.55 0.105888
4349.89 0.0985326
4351.23 0.0919277
4352.57 0.0859832
4353.90 0.0806090
4355.24 0.0757428
4357.08 0.0697592
4358.92 0.0644860
4360.76 0.0598101
4362.60 0.0556489
4364.44 0.0519257
4366.28 0.0485846
4368.12 0.0455734
4369.96 0.0428501
4372.13 0.0399537
4374.30 0.0373609
4376.48 0.0350306
4378.65 0.0329299
4383.00 0.0293096
4387.35 0.0263013
4391.03 0.0241363
4394.70 0.0222582
4398.38 0.0206185
4402.06 0.0191789
4405.74 0.0179075
4409.42 0.0167799
4416.78 0.0148750
4421.46 0.0138605
4426.14 0.0129701
4435.50 0.0114882
4444.87 0.0103178
4454.23 0.00937035
4461.59 0.00875085
4468.95 0.00821830
4483.66 0.00735810
4498.37 0.00670141
4513.09 0.00619173
4527.13 0.00580974
4541.18 0.00550043
4555.23 0.00525305
4569.27 0.00505155
4583.32 0.00488910
4597.36 0.00476050
4625.45 0.00457895
4652.21 0.00448432
4678.96 0.00444981
4700.36 0.00446042
4721.76 0.00450289
4743.17 0.00457692
4764.57 0.00468373
4785.97 0.00482595
4807.38 0.00500911
4828.78 0.00524214
4850.18 0.00553862
4870.25 0.00589528
4890.31 0.00636376
4900.35 0.00665453
4910.38 0.00700473
4920.41 0.00743211
4930.44 0.00796886
4939.14 0.00856309
4947.83 0.00933130
4956.53 0.0103822
4960.88 0.0110646
4965.22 0.0118968
4969.57 0.0129303
4973.92 0.0142419
4978.27 0.0159632
4982.61 0.0182897
4985.62 0.0204259
4988.63 0.0231920
4991.64 0.0268696
4993.15 0.0291858
4994.65 0.0319286
4995.99 0.0348206
4997.33 0.0382453
4998.66 0.0423504
5000.00 0.0473250
5001.69 0.0552854
5002.53 0.0601962
5003.38 0.0659045
5004.22 0.0726133
5005.06 0.0805663
5005.91 0.0900988
5006.75 0.101657
5007.29 0.110367
5007.82 0.120386
5008.36 0.132004
5008.90 0.145598
5009.44 0.161681
5009.97 0.180953
5010.51 0.204426
5011.05 0.233574
5011.47 0.262121
5011.89 0.297682
5012.10 0.319014
5012.31 0.343417
5012.52 0.371610
5012.73 0.404518
5012.94 0.443330
5013.16 0.489564
5013.37 0.545149
5013.58 0.612517
5013.68 0.651734
5013.79 0.694698
5013.89 0.742718
5014.00 0.795426
5014.11 0.854422
5014.21 0.919239
5014.32 0.991102
5014.42 1.07077
5014.55 1.17692
5014.67 1.29678
5014.80 1.43196
5014.92 1.58289
5014.98 1.66657
5015.04 1.75383
5015.11 1.84621
5015.17 1.94394
5015.23 2.04899
5015.29 2.15829
5015.36 2.27370
5015.42 2.39548
5015.48 2.52602
5015.54 2.66143
5015.61 2.80635
5015.67 2.95644
5015.73 3.11680
5015.79 3.28259
5015.85 3.45654
5015.92 3.63888
5015.98 3.83299
5016.04 4.03293
5016.10 4.24191
5016.17 4.46012
5016.23 4.69148
5016.29 4.92882
5016.35 5.17586
5016.41 5.43273
5016.47 5.69075
5016.53 5.95813
5016.59 6.23491
5016.65 6.52110
5016.71 6.81669
5016.77 7.12165
5016.89 7.75940
5016.97 8.18216
5017.04 8.56668
5017.10 8.96198
5017.19 9.49082
5017.28 10.0300
5017.36 10.5846
5017.45 11.1533
5017.54 11.7759
5017.63 12.4044
5017.81 13.6913
5018.00 15.0028
5018.18 16.3184
5018.39 17.8185
5018.60 19.2552
5018.77 20.3579
5018.95 21.3640
5019.05 21.9303
5019.16 22.4453
5019.26 22.9148
5019.37 23.3260
5019.47 23.6803
5019.58 23.9746
5019.71 24.2557
5019.84 24.4335
5020.00 24.5104
5020.05 24.5038
5020.20 24.3942
5020.34 24.1517
5020.46 23.8655
5020.58 23.5036
5020.70 23.0639
5020.82 22.5585
5020.96 21.8815
5021.10 21.1252
5021.22 20.4225
5021.33 19.6826
5021.57 18.1015
5021.81 16.4315
5022.04 14.7265
5022.22 13.4119
5022.41 12.1332
5022.59 10.9005
5022.77 9.72774
5022.89 8.99883
5023.01 8.30842
5023.13 7.65201
5023.24 7.03086
5023.36 6.44572
5023.48 5.89692
5023.60 5.38437
5023.72 4.90765
5023.83 4.46599
5023.95 4.05837
5024.07 3.68355
5024.19 3.34008
5024.31 3.02641
5024.42 2.74087
5024.54 2.48172
5024.66 2.24907
5024.78 2.03720
5024.89 1.84644
5025.01 1.67506
5025.13 1.52142
5025.25 1.38393
5025.37 1.26106
5025.48 1.15142
5025.60 1.05367
5025.72 0.966575
5025.84 0.889011
5025.96 0.819934
5026.07 0.758398
5026.19 0.703546
5026.31 0.654605
5026.43 0.610882
5026.55 0.571756
5026.78 0.505157
5027.02 0.451119
5027.25 0.406782
5027.49 0.369953
5027.73 0.338963
5027.96 0.312552
5028.20 0.289768
5028.43 0.269891
5028.89 0.238126
5029.34 0.212499
5029.79 0.191256
5030.24 0.173426
5030.69 0.158193
5031.14 0.145102
5031.59 0.133701
5032.04 0.123741
5032.51 0.114543
5032.98 0.106454
5033.93 0.0928952
5034.87 0.0820371
5035.82 0.0731986
5036.72 0.0662065
5037.62 0.0603181
5038.52 0.0553103
5039.42 0.0510150
5041.22 0.0440745
5043.02 0.0387628
5044.91 0.0344359
5046.80 0.0310282
5048.69 0.0283016
5050.58 0.0260913
5052.46 0.0242757
5054.35 0.0227688
5058.13 0.0204457
5061.90 0.0187806
5065.68 0.0175672
5069.63 0.0166415
5073.58 0.0159617
5077.52 0.0154691
5081.47 0.0151200
5089.37 0.0147367
5097.26 0.0146568
5105.50 0.0147927
5113.74 0.0151268
5121.98 0.0155625
5130.22 0.0161503
5138.45 0.0168639
5146.69 0.0177009
5154.93 0.0186693
5163.17 0.0197765
5170.72 0.0209284
5178.27 0.0222240
5185.83 0.0236830
5193.38 0.0253292
5200.93 0.0271880
5208.48 0.0292974
5216.03 0.0316983
5219.81 0.0330239
5223.59 0.0344354
5226.33 0.0355257
5229.08 0.0366782
5231.83 0.0378930
5234.57 0.0391736
5237.32 0.0405238
5238.69 0.0412266
5240.06 0.0419496
5241.44 0.0426935
5242.81 0.0434589
5244.18 0.0442463
5245.56 0.0450566
5247.36 0.0461568
5249.16 0.0472994
5250.96 0.0484872
5252.77 0.0497226
5254.57 0.0510089
5256.37 0.0523472
5257.27 0.0530370
5258.17 0.0537409
5259.07 0.0544595
5259.97 0.0551931
5260.51 0.0556377
5261.05 0.0560871
5261.58 0.0565431
5262.12 0.0570040
5262.66 0.0574717
5263.19 0.0579446
5263.73 0.0584245
5264.00 0.0586663
5264.27 0.0589096
5264.52 0.0591445
5264.78 0.0593809
5265.12 0.0596995
5265.47 0.0600199
5265.81 0.0603430
5266.15 0.0606688
5266.50 0.0609982
5266.84 0.0613296
5267.18 0.0616637
5267.53 0.0620006
5268.00 0.0624690
5268.47 0.0629429
5268.94 0.0634223
5269.41 0.0639075
5270.36 0.0648952
5271.30 0.0659067
5272.25 0.0669428
5273.19 0.0680042
5274.13 0.0690915
5275.08 0.0702056
5276.02 0.0713476
5276.97 0.0725184
5277.91 0.0737192
5278.85 0.0749508
5279.80 0.0762144
5280.74 0.0775111
5281.69 0.0788418
5282.63 0.0802065
5283.57 0.0816106
5284.52 0.0830512
5285.46 0.0845310
5286.41 0.0860515
5287.35 0.0876142
5288.29 0.0892207
5289.24 0.0908725
5290.18 0.0925714
5291.13 0.0943192
5292.07 0.0961177
5293.01 0.0979689
5293.96 0.0998749
5294.90 0.101838
5295.85 0.103860
5296.79 0.105944
5297.73 0.108091
5298.68 0.110306
5299.62 0.112590
5300.57 0.114946
5301.51 0.117378
5302.45 0.119888
5303.40 0.122481
5304.34 0.125160
5305.29 0.127928
5306.10 0.130397
5306.92 0.132936
5307.73 0.135550
5308.55 0.138242
5309.36 0.141019
5310.18 0.143876
5310.99 0.146820
5311.81 0.149855
5312.62 0.152990
5313.44 0.156220
5314.25 0.159553
5315.07 0.162994
5315.89 0.166551
5316.70 0.170222
5317.52 0.174015
5318.33 0.177936
5319.27 0.182644
5320.22 0.187541
5321.16 0.192637
5322.11 0.197942
5323.05 0.203468
5323.99 0.209226
5324.94 0.215230
5325.88 0.221493
5326.83 0.228032
5327.77 0.234860
5328.71 0.241996
5329.66 0.249458
5330.60 0.257264
5331.55 0.265435
5332.49 0.273993
5333.43 0.282961
5334.46 0.293243
5335.49 0.304084
5336.52 0.315526
5337.55 0.327616
5338.58 0.340400
5339.61 0.353929
5340.64 0.368258
5341.67 0.383433
5342.62 0.398167
5343.56 0.413736
5344.51 0.430203
5345.45 0.447634
5346.39 0.466101
5347.34 0.485684
5348.28 0.506469
5349.23 0.528549
5350.17 0.552029
5351.11 0.577018
5352.06 0.603641
5353.00 0.632031
5353.95 0.662333
5354.89 0.694707
5355.83 0.729327
5356.78 0.766381
5357.72 0.806078
5358.67 0.848640
5359.61 0.894311
5360.55 0.943353
5361.50 0.996050
5362.44 1.05270
5363.39 1.11364
5364.33 1.17919
5365.27 1.24972
5366.22 1.32558
5367.16 1.40714
5368.11 1.49475
5369.05 1.58876
5369.99 1.68944
5370.94 1.79703
5371.88 1.91148
5372.59 2.00211
5373.30 2.09657
5374.01 2.19470
5374.72 2.29611
5375.42 2.40072
5376.13 2.50793
5377.55 2.72746
5378.97 2.94847
5380.39 3.16171
5381.80 3.35636
5382.51 3.44281
5383.22 3.51983
5384.17 3.60561
5385.11 3.66908
5386.06 3.70781
5387.00 3.72027
5387.95 3.70593
5388.89 3.66537
5389.66 3.61418
5390.43 3.54801
5391.19 3.46849
5391.96 3.37742
5392.73 3.27680
5393.50 3.16861
5394.27 3.05482
5395.03 2.93745
5396.57 2.69769
5398.10 2.46061
5399.64 2.23372
5400.41 2.12583
5401.18 2.02234
5402.55 1.84862
5403.23 1.76736
5403.92 1.68979
5404.60 1.61574
5405.29 1.54536
5405.97 1.47843
5406.66 1.41485
5407.34 1.35440
5408.03 1.29712
5408.71 1.24279
5409.40 1.19126
5410.08 1.14240
5410.77 1.09606
5411.45 1.05213
5412.14 1.01045
5412.83 0.970696
5413.52 0.932984
5414.21 0.897200
5414.89 0.863282
5416.27 0.800387
5417.65 0.743623
5419.03 0.692223
5420.40 0.645661
5421.78 0.603363
5423.16 0.564862
5424.54 0.529723
5425.91 0.497634
5427.29 0.468249
5428.67 0.441288
5430.04 0.416488
5431.42 0.393666
5432.80 0.372613
5434.18 0.353168
5435.43 0.336746
5436.68 0.321436
5437.93 0.307117
5439.18 0.293699
5440.44 0.281100
5441.69 0.269283
5442.94 0.258181
5444.19 0.247738
5445.45 0.237899
5446.70 0.228632
5447.95 0.219889
5449.20 0.211631
5451.71 0.196436
5454.21 0.182804
5456.97 0.169370
5459.72 0.157355
5462.48 0.146567
5465.23 0.136852
5467.98 0.128066
5470.74 0.120100
5473.49 0.112855
5476.25 0.106250
5479.50 0.0991646
5482.76 0.0927707
5486.02 0.0869780
5489.27 0.0817173
5492.53 0.0769280
5495.78 0.0725714
5499.04 0.0685632
5502.29 0.0648780
5507.80 0.0592940
5513.31 0.0544142
5518.82 0.0501245
5524.33 0.0463355
5529.84 0.0429709
5535.35 0.0399715
5540.86 0.0372856
5546.37 0.0348718
5551.88 0.0326944
5557.39 0.0307242
5562.90 0.0289353
5568.41 0.0273069
5573.92 0.0258199
5579.43 0.0244592
5590.44 0.0220622
5600.96 0.0201213
5611.48 0.0184383
5622.00 0.0169821
5632.52 0.0157075
5643.03 0.0145893
5653.55 0.0136065
5664.07 0.0127345
5674.59 0.0119585
5685.61 0.0112375
5696.63 0.0105941
5707.65 0.0100194
5718.66 0.00950598
5740.70 0.00862884
5762.74 0.00791740
5783.78 0.00736524
5804.81 0.00690699
5825.85 0.00653461
5846.88 0.00622879
5867.92 0.00598373
5888.96 0.00579614
5909.99 0.00565575
5931.03 0.00556029
5963.08 0.00550245
5982.12 0.00551767
6001.15 0.00557096
6020.18 0.00566368
6039.21 0.00579927
6058.25 0.00598347
6077.28 0.00622607
6096.31 0.00653229
6115.34 0.00691892
6137.38 0.00748967
6159.42 0.00822917
6170.44 0.00867782
6181.46 0.00919278
6192.48 0.00978436
6203.50 0.0104653
6218.52 0.0115753
6233.55 0.0129494
6241.06 0.0137547
6248.57 0.0146659
6256.09 0.0156947
6263.60 0.0168615
6274.62 0.0188769
6280.13 0.0200484
6285.64 0.0213502
6291.15 0.0228026
6296.66 0.0244291
6302.17 0.0262587
6307.67 0.0283263
6312.43 0.0303370
6317.19 0.0325903
6321.95 0.0351273
6326.71 0.0379974
6331.47 0.0412527
6336.22 0.0449875
6340.98 0.0492904
6345.74 0.0542403
6349.75 0.0590621
6351.75 0.0617313
6353.75 0.0645897
6355.76 0.0676576
6356.76 0.0692768
6357.76 0.0709558
6358.76 0.0727012
6359.76 0.0745126
6360.77 0.0763970
6361.77 0.0783542
6362.96 0.0807831
6364.15 0.0833298
6365.34 0.0860021
6366.53 0.0888055
6367.72 0.0917537
6368.91 0.0948513
6369.50 0.0964617
6370.10 0.0981142
6370.69 0.0998105
6371.28 0.101549
6371.91 0.103432
6372.54 0.105369
6372.85 0.106359
6373.16 0.107362
6373.48 0.108381
6373.79 0.109414
6374.23 0.110888
6374.67 0.112390
6375.10 0.113923
6375.54 0.115488
6375.98 0.117090
6376.42 0.118722
6376.86 0.120389
6377.29 0.122092
6377.98 0.124845
6378.67 0.127694
6379.36 0.130643
6380.05 0.133691
6380.74 0.136854
6381.43 0.140131
6382.12 0.143529
6382.80 0.147047
6383.49 0.150703
6384.18 0.154499
6384.87 0.158440
6385.56 0.162529
6386.25 0.166786
6386.94 0.171207
6387.63 0.175814
6387.97 0.178184
6388.31 0.180602
6388.66 0.183078
6389.00 0.185597
6389.35 0.188177
6389.69 0.190803
6390.04 0.193492
6390.38 0.196231
6390.72 0.199029
6391.07 0.201886
6391.41 0.204815
6391.76 0.207799
6392.10 0.210848
6392.45 0.213965
6392.79 0.217161
6393.13 0.220419
6393.82 0.227160
6394.51 0.234224
6395.20 0.241622
6395.89 0.249374
6396.58 0.257491
6397.27 0.266022
6397.96 0.274981
6398.64 0.284396
6399.33 0.294284
6400.02 0.304708
6400.71 0.315689
6401.40 0.327268
6402.09 0.339469
6402.78 0.352374
6403.46 0.365998
6404.15 0.380435
6404.84 0.395704
6405.53 0.411918
6406.22 0.429127
6406.91 0.447413
6407.60 0.466834
6408.29 0.487544
6408.97 0.509624
6409.66 0.533191
6410.35 0.558338
6411.04 0.585282
6411.73 0.614149
6412.42 0.645115
6413.11 0.678327
6413.80 0.714099
6414.14 0.732974
6414.48 0.752569
6414.83 0.772977
6415.17 0.794116
6415.52 0.816084
6415.86 0.838920
6416.21 0.862736
6416.55 0.887441
6416.89 0.913224
6417.24 0.939986
6417.58 0.967935
6417.93 0.996964
6418.27 1.02721
6418.62 1.05873
6418.96 1.09170
6419.30 1.12598
6419.65 1.16184
6419.99 1.19915
6420.34 1.23821
6420.68 1.27887
6421.03 1.32131
6421.37 1.36564
6421.72 1.41207
6422.06 1.46042
6422.40 1.51108
6422.75 1.56384
6423.09 1.61912
6423.44 1.67668
6423.78 1.73679
6424.13 1.79953
6424.47 1.86521
6424.81 1.93353
6425.16 2.00477
6425.50 2.07900
6425.85 2.15652
6426.19 2.23693
6426.54 2.32051
6426.88 2.40728
6427.30 2.51725
6427.72 2.63190
6428.14 2.75110
6428.56 2.87465
6428.97 3.00225
6429.39 3.13351
6430.23 3.40446
6431.07 3.68246
6431.91 3.95897
6432.74 4.22463
6433.58 4.46715
6434.01 4.57832
6434.44 4.67839
6434.86 4.76626
6435.29 4.84007
6435.72 4.89891
6436.15 4.94148
6436.57 4.96721
6437.00 4.97550
6437.57 4.95932
6438.14 4.91252
6438.60 4.85281
6439.07 4.77522
6439.53 4.68119
6439.99 4.57254
6440.46 4.45125
6440.92 4.31943
6441.38 4.17920
6441.85 4.03265
6442.77 3.72810
6443.70 3.42050
6444.62 3.12054
6445.55 2.83596
6446.47 2.57453
6446.92 2.45211
6447.38 2.33530
6447.84 2.22411
6448.29 2.11848
6448.75 2.01832
6449.21 1.92347
6449.66 1.83374
6450.12 1.74894
6450.58 1.66883
6451.04 1.59320
6451.49 1.52182
6451.95 1.45445
6452.41 1.39086
6452.86 1.33085
6453.33 1.27335
6453.79 1.21922
6454.25 1.16801
6454.72 1.11977
6455.18 1.07409
6455.64 1.03101
6456.11 0.990189
6456.57 0.951646
6457.04 0.915078
6457.50 0.880512
6458.43 0.816605
6459.35 0.759049
6460.28 0.707085
6461.21 0.660052
6462.13 0.617379
6463.06 0.578569
6463.99 0.543188
6464.91 0.510862
6465.84 0.481261
6466.77 0.454100
6467.69 0.429155
6468.45 0.410184
6469.21 0.392449
6469.97 0.375802
6470.73 0.360198
6471.49 0.345512
6472.25 0.331707
6473.76 0.306411
6475.28 0.283858
6476.80 0.263681
6478.31 0.245565
6479.83 0.229245
6481.68 0.211409
6483.54 0.195574
6485.39 0.181453
6487.25 0.168811
6489.10 0.157450
6490.95 0.147204
6492.81 0.137933
6494.66 0.129518
6496.69 0.121194
6498.71 0.113660
6500.73 0.106813
6502.75 0.100579
6504.78 0.0948830
6506.80 0.0896758
6508.82 0.0848998
6510.84 0.0805031
6514.55 0.0732868
6518.26 0.0670212
6521.97 0.0615500
6525.67 0.0567452
6529.38 0.0525034
6533.09 0.0487406
6536.80 0.0453876
6540.51 0.0423874
6544.21 0.0396927
6547.92 0.0372636
6551.63 0.0350666
6555.34 0.0330735
6562.75 0.0296055
6570.17 0.0267046
6576.91 0.0244708
6583.65 0.0225359
6590.40 0.0208520
6597.14 0.0193815
6603.88 0.0180913
6610.62 0.0169540
6617.36 0.0159471
6624.10 0.0150530
6631.52 0.0141820
6638.94 0.0134124
6653.77 0.0121259
6668.60 0.0111096
6683.43 0.0103046
6695.57 0.00977619
6707.70 0.00934233
6719.84 0.00899056
6731.97 0.00871108
6744.11 0.00849627
6756.24 0.00834075
6780.51 0.00819443
6794.67 0.00820727
6808.83 0.00828951
6822.99 0.00844255
6837.15 0.00867562
6851.30 0.00899338
6865.46 0.00940312
6879.62 0.00992534
6893.78 0.0105711
6908.61 0.0114191
6923.44 0.0124789
6938.27 0.0138071
6945.69 0.0145958
6953.10 0.0154837
6960.18 0.0164386
6967.26 0.0175143
6974.34 0.0187302
6981.42 0.0201109
6988.50 0.0216852
6995.58 0.0234886
7002.66 0.0255673
7009.74 0.0279639
7017.15 0.0309191
7024.57 0.0344258
7028.28 0.0364284
7031.98 0.0386256
7035.69 0.0410430
7039.40 0.0437107
7042.60 0.0462436
7045.80 0.0490151
7049.01 0.0520579
7052.21 0.0554061
7055.41 0.0591037
7058.61 0.0631952
7060.22 0.0654042
7061.82 0.0677335
7063.42 0.0701954
7065.02 0.0728010
7066.37 0.0751151
7067.72 0.0775427
7069.06 0.0800943
7070.41 0.0827741
7071.76 0.0855951
7072.44 0.0870600
7073.11 0.0885636
7073.78 0.0901075
7074.46 0.0916930
7075.13 0.0933216
7075.81 0.0949950
7076.99 0.0980369
7077.58 0.0996138
7078.17 0.101230
7078.76 0.102886
7079.35 0.104583
7079.94 0.106324
7080.52 0.108106
7080.99 0.109541
7081.45 0.111003
7081.92 0.112497
7082.38 0.114019
7083.31 0.117162
7084.23 0.120437
7085.16 0.123853
7085.62 0.125618
7086.09 0.127417
7086.55 0.129259
7087.01 0.131138
7087.48 0.133063
7087.94 0.135026
7088.40 0.137037
7088.87 0.139089
7089.33 0.141193
7089.79 0.143340
7090.26 0.145541
7090.72 0.147789
7091.19 0.150094
7091.65 0.152449
7092.11 0.154864
7092.58 0.157332
7093.04 0.159865
7093.50 0.162454
7093.97 0.165113
7094.43 0.167830
7094.89 0.170622
7095.36 0.173477
7095.78 0.176142
7096.20 0.178863
7096.62 0.181653
7097.04 0.184502
7097.46 0.187426
7097.89 0.190411
7098.31 0.193469
7098.73 0.196600
7099.15 0.199815
7099.57 0.203101
7099.99 0.206476
7100.41 0.209927
7100.84 0.213473
7101.26 0.217100
7101.68 0.220819
7102.10 0.224633
7102.56 0.228952
7103.03 0.233385
7103.49 0.237956
7103.95 0.242651
7104.42 0.247495
7104.88 0.252473
7105.34 0.257611
7105.81 0.262894
7106.27 0.268350
7106.73 0.273962
7107.20 0.279762
7107.66 0.285731
7108.12 0.291903
7108.59 0.298259
7109.05 0.304835
7109.51 0.311612
7109.98 0.318627
7110.44 0.325859
7110.91 0.333352
7111.37 0.341081
7111.83 0.349093
7112.30 0.357365
7112.76 0.365944
7113.22 0.374807
7113.69 0.384006
7114.15 0.393516
7114.61 0.403393
7115.08 0.413610
7115.54 0.424230
7116.00 0.435224
7116.47 0.446659
7116.93 0.458507
7117.39 0.470838
7117.86 0.483623
7118.32 0.496941
7118.78 0.510759
7119.25 0.525165
7119.71 0.540123
7120.18 0.555729
7120.64 0.571946
7121.10 0.588879
7121.57 0.606489
7122.03 0.624890
7122.49 0.644042
7122.96 0.664071
7123.42 0.684932
7123.88 0.706765
7124.35 0.729522
7124.81 0.753357
7125.27 0.778219
7125.74 0.804275
7126.20 0.831473
7126.66 0.859995
7127.13 0.889785
7127.59 0.921042
7128.05 0.953704
7128.52 0.987991
7128.98 1.02383
7129.45 1.06147
7129.91 1.10082
7130.37 1.14214
7130.84 1.18535
7131.30 1.23071
7131.76 1.27813
7132.24 1.32911
7132.71 1.38254
7133.19 1.43850
7133.66 1.49709
7134.14 1.55837
7134.61 1.62242
7135.09 1.68927
7135.56 1.75881
7136.04 1.83133
7136.51 1.90668
7136.99 1.98478
7137.46 2.06556
7137.94 2.14885
7138.41 2.23449
7138.89 2.32221
7139.36 2.41151
7140.35 2.60197
7141.34 2.79394
7142.33 2.98157
7143.32 3.15780
7144.31 3.31471
7144.81 3.38337
7145.30 3.44420
7145.80 3.49627
7146.29 3.53880
7146.79 3.57110
7147.28 3.59264
7148.00 3.60407
7148.54 3.59696
7149.08 3.57653
7149.62 3.54320
7150.16 3.49760
7150.70 3.44062
7151.24 3.37329
7151.78 3.29680
7152.32 3.21243
7152.86 3.12150
7153.40 3.02534
7154.48 2.82243
7155.56 2.61312
7156.64 2.40514
7157.72 2.20432
7158.80 2.01464
7159.70 1.86744
7160.59 1.73033
7161.49 1.60333
7162.38 1.48626
7163.28 1.37874
7164.17 1.28023
7165.07 1.19013
7165.96 1.10778
7166.85 1.03327
7167.73 0.965120
7168.62 0.902764
7169.50 0.845727
7170.39 0.793386
7171.28 0.745411
7172.16 0.701285
7173.05 0.660738
7173.65 0.634920
7174.25 0.610493
7174.86 0.587370
7175.46 0.565466
7176.67 0.525011
7177.88 0.488591
7179.09 0.455650
7180.29 0.425818
7181.50 0.398685
7182.71 0.373994
7183.59 0.357253
7184.48 0.341579
7185.37 0.326886
7186.25 0.313112
7188.02 0.287983
7189.79 0.265704
7191.56 0.245868
7193.33 0.228139
7195.11 0.212235
7196.88 0.197918
7198.65 0.184979
7200.42 0.173264
7202.19 0.162619
7203.96 0.152919
7205.73 0.144056
7207.50 0.135939
7209.27 0.128487
7211.05 0.121630
7213.94 0.111539
7216.84 0.102672
7219.74 0.0948187
7222.64 0.0878231
7225.54 0.0815728
7228.44 0.0759720
7231.33 0.0709324
7234.23 0.0663818
7237.77 0.0613946
7241.32 0.0569557
7244.86 0.0529867
7248.40 0.0494237
7251.94 0.0462126
7255.49 0.0433101
7259.03 0.0406773
7262.57 0.0382819
7267.08 0.0355326
7271.59 0.0330759
7276.10 0.0308707
7280.60 0.0288861
7289.62 0.0254730
7298.64 0.0226376
7305.72 0.0207399
7312.81 0.0190795
7319.89 0.0176182
7326.97 0.0163261
7334.06 0.0151770
7341.14 0.0141513
7355.31 0.0124034
7369.48 0.0109772
7383.65 0.00979809
7397.82 0.00881175
7411.99 0.00797818
7425.51 0.00730021
7439.04 0.00670976
7452.56 0.00619676
7466.09 0.00574515
7493.14 0.00499482
7520.19 0.00439870
7548.53 0.00389782
7576.87 0.00349108
7605.20 0.00315598
7633.54 0.00287719
7661.88 0.00264409
7690.22 0.00244444
7746.90 0.00212825
7803.57 0.00189267
7860.25 0.00171644
7911.77 0.00159728
7963.30 0.00150998
8014.82 0.00145432
8066.34 0.00143060
8104.99 0.00143897
8143.63 0.00147662
8182.27 0.00155393
8220.92 0.00169477
8241.53 0.00180930
8262.14 0.00196460
8282.75 0.00217712
8303.35 0.00247639
8316.88 0.00274135
8330.40 0.00308461
8343.93 0.00353870
8357.45 0.00415316
8371.62 0.00506524
8378.71 0.00567331
8385.79 0.00642493
8392.56 0.00732103
8399.32 0.00845342
8406.08 0.00991316
8412.84 0.0118344
8419.93 0.0145907
8423.47 0.0163769
8427.01 0.0185362
8430.55 0.0211812
8434.10 0.0244675
8437.64 0.0286224
8441.18 0.0339814
8443.44 0.0382432
8445.69 0.0433819
8447.94 0.0496662
8450.20 0.0574685
8451.97 0.0650023
8453.74 0.0741600
8455.51 0.0854492
8456.40 0.0921125
8457.28 0.0995956
8458.17 0.108061
8459.05 0.117679
8459.94 0.128673
8460.82 0.141309
8461.71 0.155972
8462.60 0.173089
8463.48 0.193303
8464.37 0.217375
8465.13 0.242141
8465.90 0.271581
8466.66 0.307011
8467.04 0.327495
8467.43 0.350220
8467.81 0.375619
8468.19 0.404003
8468.57 0.436072
8468.96 0.472338
8469.15 0.492442
8469.34 0.513849
8469.53 0.536802
8469.72 0.561460
8469.91 0.588000
8470.10 0.616623
8470.29 0.647552
8470.48 0.681041
8470.69 0.719557
8470.89 0.761408
8471.09 0.807192
8471.19 0.831826
8471.29 0.857371
8471.39 0.884406
8471.49 0.912751
8471.59 0.942480
8471.69 0.973357
8471.79 1.00608
8471.89 1.04009
8471.99 1.07614
8472.09 1.11363
8472.18 1.14536
8472.29 1.19094
8472.40 1.23907
8472.51 1.28989
8472.62 1.34306
8472.73 1.39970
8472.84 1.45894
8472.95 1.52204
8473.06 1.58801
8473.16 1.64852
8473.25 1.71189
8473.35 1.77822
8473.44 1.84691
8473.54 1.91949
8473.63 1.99459
8473.73 2.07389
8473.83 2.15584
8473.92 2.24229
8474.02 2.33250
8474.11 2.42658
8474.21 2.52358
8474.30 2.62563
8474.40 2.73071
8474.50 2.84110
8474.59 2.95457
8474.70 3.09258
8474.81 3.23652
8474.92 3.38645
8475.03 3.54098
8475.14 3.70294
8475.25 3.86941
8475.37 4.04338
8475.48 4.22165
8475.59 4.40737
8475.70 4.59881
8475.81 4.79582
8475.92 4.99634
8476.03 5.20378
8476.14 5.41606
8476.36 5.85182
8476.58 6.30454
8476.80 6.76647
8477.03 7.23537
8477.25 7.70640
8477.69 8.63504
8477.91 9.08064
8478.13 9.50280
8478.37 9.92632
8478.61 10.3101
8478.85 10.6469
8479.08 10.9302
8479.31 11.1469
8479.54 11.3046
8479.77 11.4004
8480.00 11.4323
8480.14 11.4204
8480.28 11.3852
8480.55 11.2465
8480.83 11.0201
8481.10 10.7123
8481.38 10.3328
8481.57 10.0205
8481.77 9.67978
8481.97 9.31494
8482.16 8.93038
8482.46 8.31482
8482.77 7.67917
8483.07 7.03809
8483.37 6.40685
8483.72 5.69701
8483.89 5.35722
8484.06 5.02874
8484.24 4.71274
8484.41 4.41010
8484.59 4.12150
8484.76 3.84741
8484.93 3.58665
8485.11 3.34229
8485.28 3.11271
8485.46 2.89770
8485.63 2.69692
8485.80 2.50994
8485.98 2.33625
8486.15 2.17524
8486.30 2.04533
8486.45 1.92484
8486.60 1.81174
8486.75 1.70709
8486.91 1.60903
8487.06 1.51844
8487.21 1.43420
8487.36 1.35592
8487.66 1.21515
8487.96 1.09406
8488.26 0.989087
8488.56 0.898512
8488.91 0.808011
8489.25 0.731036
8489.60 0.664983
8489.95 0.607949
8490.30 0.558381
8490.65 0.515020
8490.99 0.476849
8491.34 0.443042
8491.75 0.407750
8492.17 0.376824
8492.58 0.349412
8492.99 0.325089
8493.40 0.303284
8493.81 0.283739
8494.63 0.250108
8495.33 0.226207
8496.03 0.205695
8496.72 0.187896
8497.42 0.172384
8498.12 0.158738
8498.81 0.146699
8500.20 0.126460
8501.60 0.110191
8502.99 0.0969264
8504.38 0.0859560
8505.77 0.0767768
8506.91 0.0703300
8508.05 0.0646807
8510.33 0.0552716
8512.61 0.0478008
8514.89 0.0417717
8517.67 0.0358571
8520.46 0.0311378
8523.24 0.0273114
8526.03 0.0241654
8529.57 0.0209093
8533.12 0.0182903
8536.66 0.0161520
8540.21 0.0143798
8545.78 0.0121526
8551.35 0.0104290
8556.92 0.00906729
8562.49 0.00797280
8568.57 0.00700677
8574.64 0.00622116
8586.79 0.00503535
8597.94 0.00425210
8609.08 0.00366251
8620.22 0.00320744
8631.36 0.00284880
8646.55 0.00247029
8661.74 0.00218305
8676.93 0.00195825
8692.12 0.00177952
8716.43 0.00156130
8740.73 0.00140061
8765.04 0.00127884
8789.35 0.00118466
8833.91 0.00105943
8878.47 0.000974410
8967.59 0.000873482
8983.80 0.000862362
8987.85 0.000859727
8989.87 0.000863144
8990.89 0.000883627
8991.39 0.000913864
8991.90 0.000975263
8992.40 0.00109485
8992.66 0.00118938
8992.91 0.00131710
8993.16 0.00148861
8993.42 0.00171475
8993.67 0.00201082
8993.92 0.00239443
8994.18 0.00288851
8994.43 0.00351333
8994.68 0.00429804
8994.94 0.00527340
8995.19 0.00647323
8995.44 0.00793396
8995.70 0.00969402
8995.95 0.0117929
8996.20 0.0142806
8996.46 0.0171757
8996.71 0.0205225
8996.96 0.0243513
8997.47 0.0335655
8997.97 0.0448728
8998.48 0.0582393
8998.99 0.0733400
9000.00 0.106830
9000.00 0.212853
9500.00 0.206686
10000.0 0.201000
10625.0 0.193655
11250.0 0.186976
11875.0 0.180870
12500.0 0.175262
13125.0 0.169797
13750.0 0.164746
14375.0 0.160060
15000.0 0.155698
16000.0 0.149470
17000.0 0.143847
18500.0 0.135976
20000.0 0.129102
21250.0 0.123629
22500.0 0.118681
23750.0 0.114183
25000.0 0.110074
26250.0 0.106349
27500.0 0.102915
28750.0 0.0997376
30000.0 0.0967873
32500.0 0.0916909
35000.0 0.0872119
37500.0 0.0831438
40000.0 0.0795103
42500.0 0.0763345
45000.0 0.0734565
47500.0 0.0708341
50000.0 0.0684328
52500.0 0.0662920
55000.0 0.0643131
57500.0 0.0624775
60000.0 0.0607691
65000.0 0.0581024
70000.0 0.0557378
75000.0 0.0537162
80000.0 0.0518916
85000.0 0.0504351
90000.0 0.0490994
99999.9 0.0467293
100000 0.0468343
112500 0.0449834
125000 0.0433898
137500 0.0419969
150000 0.0407644
175000 0.0396148
200000 0.0386452
250000 0.0381103
300000 0.0383134
350000 0.0390934
400000 0.0397820
450000 0.0403993
500000 0.0409597
508316 0.0410818
516632 0.0412022
524948 0.0413210
533264 0.0414383
541580 0.0415542
549896 0.0416685
558212 0.0417815
566528 0.0418931
568614 0.0413764
570699 0.0408679
574870 0.0398749
579041 0.0389130
583212 0.0379809
591554 0.0362019
599896 0.0345294
608238 0.0329557
616580 0.0314737
624922 0.0300770
633264 0.0287595
641606 0.0275159
649948 0.0263410
658290 0.0252304
666632 0.0241798
674974 0.0231851
683316 0.0222428
691658 0.0213496
700000 0.0205023
706250 0.0203796
712500 0.0202587
718750 0.0201395
725000 0.0200221
731250 0.0199064
737500 0.0197923
743750 0.0196798
750000 0.0195689
756250 0.0194595
762500 0.0193516
768750 0.0192452
775000 0.0191403
781250 0.0190367
787500 0.0189345
793750 0.0188337
800000 0.0187342
806250 0.0186975
812500 0.0186611
818750 0.0186251
825000 0.0185894
831250 0.0185541
837500 0.0185191
843750 0.0184844
850000 0.0184500
856250 0.0184160
862500 0.0183822
868750 0.0183488
875000 0.0183156
881250 0.0182828
887500 0.0182503
893750 0.0182180
900000 0.0181860
906250 0.0181895
912500 0.0181931
918750 0.0181965
925000 0.0182000
931250 0.0182034
937500 0.0182069
943750 0.0182103
950000 0.0182136
956250 0.0182170
962500 0.0182203
968750 0.0182236
975000 0.0182269
981250 0.0182302
987500 0.0182335
993750 0.0182367
1.00000E+06 0.0182399
1.00858E+06 0.0182910
1.01715E+06 0.0183417
1.02573E+06 0.0183922
1.03430E+06 0.0184424
1.04288E+06 0.0184923
1.05145E+06 0.0185419
1.06003E+06 0.0185912
1.06861E+06 0.0186403
1.07718E+06 0.0186892
1.08576E+06 0.0187377
1.09433E+06 0.0187860
1.10291E+06 0.0188341
1.11148E+06 0.0188819
1.12006E+06 0.0189294
1.12864E+06 0.0189767
1.13721E+06 0.0190238
1.13721E+06 0.0190238
1.14018E+06 0.0190288
1.14315E+06 0.0190337
1.14909E+06 0.0190436
1.16097E+06 0.0190633
1.17286E+06 0.0190827
1.18474E+06 0.0191020
1.19662E+06 0.0191211
1.20850E+06 0.0191400
1.22038E+06 0.0191588
1.23226E+06 0.0191774
1.23670E+06 0.0189047
1.24113E+06 0.0186368
1.25000E+06 0.0181152
1.25616E+06 0.0180080
1.26232E+06 0.0179020
1.26848E+06 0.0177971
1.27465E+06 0.0176933
1.28081E+06 0.0175906
1.28697E+06 0.0174890
1.29313E+06 0.0173884
1.29929E+06 0.0172890
1.30545E+06 0.0171905
1.31161E+06 0.0170931
1.31777E+06 0.0169967
1.32394E+06 0.0169012
1.33010E+06 0.0168068
1.33626E+06 0.0167133
1.34242E+06 0.0166207
1.34858E+06 0.0165291
1.34858E+06 0.0165290
1.35332E+06 0.0164262
1.35805E+06 0.0163243
1.36751E+06 0.0161236
1.37697E+06 0.0159266
1.38644E+06 0.0157334
1.39590E+06 0.0155438
1.40536E+06 0.0153578
1.41483E+06 0.0151752
1.42429E+06 0.0149960
1.43375E+06 0.0148200
1.44322E+06 0.0146473
1.45268E+06 0.0144776
1.46215E+06 0.0143111
1.47161E+06 0.0141475
1.48107E+06 0.0139868
1.49054E+06 0.0138289
1.50000E+06 0.0136738
1.50661E+06 0.0136646
1.51322E+06 0.0136554
1.51982E+06 0.0136462
1.52643E+06 0.0136371
1.53304E+06 0.0136281
1.53965E+06 0.0136191
1.54625E+06 0.0136101
1.55286E+06 0.0136012
1.55947E+06 0.0135923
1.56608E+06 0.0135835
1.57268E+06 0.0135747
1.57929E+06 0.0135659
1.58590E+06 0.0135572
1.59251E+06 0.0135485
1.59911E+06 0.0135399
1.60572E+06 0.0135313
1.61233E+06 0.0135228
1.61894E+06 0.0135143
1.62554E+06 0.0135058
1.63215E+06 0.0134974
1.63876E+06 0.0134890
1.64537E+06 0.0134807
1.65197E+06 0.0134724
1.65858E+06 0.0134641
1.66519E+06 0.0134559
1.67180E+06 0.0134477
1.67840E+06 0.0134395
1.68501E+06 0.0134314
1.69162E+06 0.0134233
1.69823E+06 0.0134153
1.70483E+06 0.0134073
1.71144E+06 0.0133993
1.71144E+06 0.0133993
1.71626E+06 0.0133573
1.72108E+06 0.0133155
1.73072E+06 0.0132328
1.74036E+06 0.0131509
1.75000E+06 0.0130701
1.75767E+06 0.0130468
1.76534E+06 0.0130236
1.77301E+06 0.0130006
1.78068E+06 0.0129777
1.78834E+06 0.0129550
1.79601E+06 0.0129324
1.80368E+06 0.0129099
1.81135E+06 0.0128876
1.81135E+06 0.0128876
1.81725E+06 0.0128566
1.82314E+06 0.0128259
1.83493E+06 0.0127648
1.84672E+06 0.0127044
1.85851E+06 0.0126447
1.87030E+06 0.0125857
1.88209E+06 0.0125273
1.89389E+06 0.0124695
1.90568E+06 0.0124123
1.91747E+06 0.0123558
1.92926E+06 0.0122998
1.94105E+06 0.0122445
1.95284E+06 0.0121897
1.96463E+06 0.0121355
1.97642E+06 0.0120819
1.98821E+06 0.0120288
2.00000E+06 0.0119763
2.00662E+06 0.0119753
2.01323E+06 0.0119744
2.01985E+06 0.0119734
2.02646E+06 0.0119724
2.03308E+06 0.0119715
2.03969E+06 0.0119705
2.04631E+06 0.0119696
2.05292E+06 0.0119686
2.05933E+06 0.0119491
2.06574E+06 0.0119297
2.07215E+06 0.0119103
2.07856E+06 0.0118911
2.08496E+06 0.0118720
2.09137E+06 0.0118529
2.09778E+06 0.0118339
2.10419E+06 0.0118151
2.11060E+06 0.0117963
2.11701E+06 0.0117776
2.12342E+06 0.0117589
2.12983E+06 0.0117404
2.13623E+06 0.0117220
2.14264E+06 0.0117036
2.14905E+06 0.0116853
2.15546E+06 0.0116671
2.15546E+06 0.0116671
2.16095E+06 0.0116380
2.16643E+06 0.0116092
2.17740E+06 0.0115518
2.18837E+06 0.0114950
2.19934E+06 0.0114388
2.20726E+06 0.0114170
2.21518E+06 0.0113953
2.21519E+06 0.0113953
2.22483E+06 0.0113690
2.23448E+06 0.0113429
2.24412E+06 0.0113170
2.25377E+06 0.0112912
2.26342E+06 0.0112656
2.27307E+06 0.0112402
2.28271E+06 0.0112149
2.29236E+06 0.0111898
2.29873E+06 0.0111880
2.30510E+06 0.0111862
2.31784E+06 0.0111827
2.33058E+06 0.0111792
2.34333E+06 0.0111757
2.35607E+06 0.0111722
2.36881E+06 0.0111688
2.38155E+06 0.0111653
2.39429E+06 0.0111619
2.39430E+06 0.0111619
2.40268E+06 0.0111511
2.41106E+06 0.0111404
2.41945E+06 0.0111298
2.42783E+06 0.0111191
2.43622E+06 0.0111086
2.44460E+06 0.0110980
2.45299E+06 0.0110875
2.46137E+06 0.0110771
2.46137E+06 0.0110771
2.46891E+06 0.0110464
2.47645E+06 0.0110159
2.49152E+06 0.0109554
2.50659E+06 0.0108956
2.52166E+06 0.0108365
2.52167E+06 0.0108365
2.52828E+06 0.0107932
2.53489E+06 0.0107503
2.54811E+06 0.0106652
2.54811E+06 0.0106652
2.55512E+06 0.0106251
2.56212E+06 0.0105852
2.57613E+06 0.0105062
2.59014E+06 0.0104283
2.60415E+06 0.0103513
2.61319E+06 0.0103006
2.62224E+06 0.0102504
2.63128E+06 0.0102006
2.64032E+06 0.0101512
2.64676E+06 0.0101067
2.65319E+06 0.0100624
2.65952E+06 0.0100146
2.66585E+06 0.00996720
2.66586E+06 0.00996717
2.67204E+06 0.00992542
2.67822E+06 0.00988394
2.69058E+06 0.00980176
2.69798E+06 0.00974470
2.70537E+06 0.00968812
2.70537E+06 0.00968810
2.71390E+06 0.00962233
2.72242E+06 0.00955722
2.73094E+06 0.00949274
2.73947E+06 0.00942889
2.74799E+06 0.00936567
2.75652E+06 0.00930307
2.76504E+06 0.00924108
2.77357E+06 0.00917969
2.78209E+06 0.00911889
2.79061E+06 0.00905868
2.79914E+06 0.00899905
2.80766E+06 0.00893999
2.81619E+06 0.00888149
2.82471E+06 0.00882356
2.83324E+06 0.00876618
2.84176E+06 0.00870934
2.84176E+06 0.00870933
2.84987E+06 0.00865631
2.85412E+06 0.00862096
2.85412E+06 0.00862093
2.86233E+06 0.00855504
2.86233E+06 0.00855503
2.87117E+06 0.00849814
2.88001E+06 0.00844181
2.88885E+06 0.00838602
2.89769E+06 0.00833076
2.89770E+06 0.00833073
2.90793E+06 0.00826335
2.91837E+06 0.00819301
2.92881E+06 0.00812352
2.93924E+06 0.00805486
2.94968E+06 0.00798702
2.95880E+06 0.00792871
2.96655E+06 0.00787800
2.97430E+06 0.00782774
2.98980E+06 0.00772857
2.98980E+06 0.00772855
3.00000E+06 0.00766101
3.00392E+06 0.00763892
3.00784E+06 0.00761693
3.01172E+06 0.00760379
3.01559E+06 0.00759068
3.01947E+06 0.00757761
3.02334E+06 0.00756459
3.02722E+06 0.00755160
3.03109E+06 0.00753865
3.03497E+06 0.00752574
3.03885E+06 0.00751288
3.04272E+06 0.00750004
3.04660E+06 0.00748725
3.05047E+06 0.00747449
3.05435E+06 0.00746177
3.05822E+06 0.00744909
3.06210E+06 0.00743645
3.06598E+06 0.00742384
3.06985E+06 0.00741128
3.07373E+06 0.00739874
3.07760E+06 0.00738625
3.08148E+06 0.00737379
3.08535E+06 0.00736137
3.08923E+06 0.00734899
3.09310E+06 0.00733664
3.09698E+06 0.00732433
3.10086E+06 0.00731205
3.10473E+06 0.00729981
3.10861E+06 0.00728761
3.11248E+06 0.00727544
3.11636E+06 0.00726330
3.12023E+06 0.00725120
3.12411E+06 0.00723914
3.12799E+06 0.00722711
3.13186E+06 0.00721512
3.13574E+06 0.00720316
3.13961E+06 0.00719124
3.14349E+06 0.00717935
3.14736E+06 0.00716750
3.15124E+06 0.00715567
3.15511E+06 0.00714389
3.15899E+06 0.00713213
3.16287E+06 0.00712042
3.16674E+06 0.00710873
3.17062E+06 0.00709708
3.17449E+06 0.00708545
3.17837E+06 0.00707387
3.18224E+06 0.00706232
3.18612E+06 0.00705080
3.19000E+06 0.00703931
3.19387E+06 0.00702786
3.19775E+06 0.00701643
3.20162E+06 0.00700504
3.20550E+06 0.00699368
3.20937E+06 0.00698236
3.21325E+06 0.00697107
3.21712E+06 0.00695981
3.22100E+06 0.00694857
3.22488E+06 0.00693738
3.22875E+06 0.00692621
3.23263E+06 0.00691507
3.23650E+06 0.00690397
3.24038E+06 0.00689290
3.24425E+06 0.00688185
3.24813E+06 0.00687084
3.25201E+06 0.00685986
3.25588E+06 0.00684891
3.25976E+06 0.00683799
3.26363E+06 0.00682710
3.26751E+06 0.00681624
3.27138E+06 0.00680542
3.27526E+06 0.00679462
3.27913E+06 0.00678385
3.28301E+06 0.00677311
3.28689E+06 0.00676240
3.29076E+06 0.00675172
3.29464E+06 0.00674107
3.29851E+06 0.00673044
3.30239E+06 0.00671985
3.30626E+06 0.00670929
3.31014E+06 0.00669876
3.31402E+06 0.00668825
3.31789E+06 0.00667778
3.32177E+06 0.00666733
3.32564E+06 0.00665691
3.32952E+06 0.00664651
3.33339E+06 0.00663615
3.33727E+06 0.00662582
3.34114E+06 0.00661551
3.34502E+06 0.00660523
3.34890E+06 0.00659498
3.35277E+06 0.00658476
3.35665E+06 0.00657456
3.36052E+06 0.00656439
3.36440E+06 0.00655425
3.36827E+06 0.00654414
3.37215E+06 0.00653406
3.37603E+06 0.00652400
3.37990E+06 0.00651397
3.38378E+06 0.00650396
3.38765E+06 0.00649398
3.39153E+06 0.00648403
3.39540E+06 0.00647410
3.39928E+06 0.00646420
3.40315E+06 0.00645433
3.40703E+06 0.00644449
3.41091E+06 0.00643467
3.41478E+06 0.00642487
3.41866E+06 0.00641511
3.42253E+06 0.00640536
3.42641E+06 0.00639565
3.43028E+06 0.00638596
3.43416E+06 0.00637630
3.43804E+06 0.00636666
3.44191E+06 0.00635704
3.44579E+06 0.00634745
3.44966E+06 0.00633789
3.45354E+06 0.00632835
3.45741E+06 0.00631884
3.46129E+06 0.00630935
3.46516E+06 0.00629989
3.46904E+06 0.00629045
3.47292E+06 0.00628104
3.47679E+06 0.00627165
3.48067E+06 0.00626228
3.48454E+06 0.00625294
3.48842E+06 0.00624363
3.49229E+06 0.00623433
3.49617E+06 0.00622507
3.50005E+06 0.00621582
3.50392E+06 0.00620660
3.50780E+06 0.00619741
3.51167E+06 0.00618823
3.51555E+06 0.00617908
3.51942E+06 0.00616996
3.52330E+06 0.00616086
3.52717E+06 0.00615178
3.53105E+06 0.00614273
3.53493E+06 0.00613370
3.53880E+06 0.00612469
3.54268E+06 0.00611570
3.54655E+06 0.00610674
3.55043E+06 0.00609780
3.55430E+06 0.00608888
3.55818E+06 0.00607999
3.56206E+06 0.00607112
3.56593E+06 0.00606227
3.56981E+06 0.00605344
3.57368E+06 0.00604464
3.57756E+06 0.00603586
3.58143E+06 0.00602710
3.58531E+06 0.00601836
3.58918E+06 0.00600965
3.59306E+06 0.00600095
3.59694E+06 0.00599228
3.60081E+06 0.00598363
3.60469E+06 0.00597501
3.60856E+06 0.00596640
3.61244E+06 0.00595782
3.61631E+06 0.00594925
3.62019E+06 0.00594071
3.62407E+06 0.00593219
3.62794E+06 0.00592370
3.63182E+06 0.00591522
3.63569E+06 0.00590676
3.63957E+06 0.00589833
3.64344E+06 0.00588991
3.64732E+06 0.00588152
3.65119E+06 0.00587315
3.65507E+06 0.00586480
3.65895E+06 0.00585647
3.66282E+06 0.00584816
3.66670E+06 0.00583987
3.67057E+06 0.00583160
3.67445E+06 0.00582335
3.67832E+06 0.00581512
3.68220E+06 0.00580691
3.68608E+06 0.00579872
3.68995E+06 0.00579056
3.69383E+06 0.00578241
3.69770E+06 0.00577428
3.70158E+06 0.00576617
3.70545E+06 0.00575809
3.70933E+06 0.00575002
3.71320E+06 0.00574197
3.71708E+06 0.00573394
3.72096E+06 0.00572593
3.72483E+06 0.00571794
3.72871E+06 0.00570997
3.73258E+06 0.00570202
3.73646E+06 0.00569409
3.74033E+06 0.00568618
3.74421E+06 0.00567829
3.74809E+06 0.00567041
3.75196E+06 0.00566256
3.75584E+06 0.00565472
3.75971E+06 0.00564690
3.76359E+06 0.00563910
3.76746E+06 0.00563133
3.77134E+06 0.00562356
3.77521E+06 0.00561582
3.77909E+06 0.00560810
3.78297E+06 0.00560040
3.78684E+06 0.00559271
3.79072E+06 0.00558504
3.79459E+06 0.00557739
3.79847E+06 0.00556976
3.80234E+06 0.00556215
3.80622E+06 0.00555455
3.81010E+06 0.00554697
3.81397E+06 0.00553942
3.81785E+06 0.00553187
3.82172E+06 0.00552435
3.82560E+06 0.00551684
3.82947E+06 0.00550936
3.83335E+06 0.00550189
3.83722E+06 0.00549444
3.84110E+06 0.00548700
3.84498E+06 0.00547959
3.84885E+06 0.00547219
3.85273E+06 0.00546480
3.85660E+06 0.00545744
3.86048E+06 0.00545009
3.86435E+06 0.00544276
3.86823E+06 0.00543545
3.87211E+06 0.00542815
3.87598E+06 0.00542087
3.87986E+06 0.00541361
3.88373E+06 0.00540637
3.88761E+06 0.00539914
3.89148E+06 0.00539193
3.89536E+06 0.00538473
3.89923E+06 0.00537756
3.90311E+06 0.00537039
3.90699E+06 0.00536325
3.91086E+06 0.00535612
3.91474E+06 0.00534901
3.91861E+06 0.00534192
3.92249E+06 0.00533484
3.92636E+06 0.00532778
3.93024E+06 0.00532073
3.93412E+06 0.00531370
3.93799E+06 0.00530669
3.94187E+06 0.00529969
3.94574E+06 0.00529271
3.94962E+06 0.00528575
3.95349E+06 0.00527880
3.95737E+06 0.00527186
3.96124E+06 0.00526495
3.96512E+06 0.00525805
3.96900E+06 0.00525116
3.97287E+06 0.00524429
3.97675E+06 0.00523744
3.98062E+06 0.00523060
3.98450E+06 0.00522378
3.98837E+06 0.00521697
3.99225E+06 0.00521018
3.99613E+06 0.00520340
4.00000E+06 0.00519664
4.01476E+06 0.00517079
4.02951E+06 0.00514517
4.04426E+06 0.00511976
4.05902E+06 0.00509458
4.07377E+06 0.00506960
4.08853E+06 0.00504484
4.10328E+06 0.00502029
4.11804E+06 0.00499595
4.13279E+06 0.00497181
4.14754E+06 0.00494787
4.16230E+06 0.00492414
4.17705E+06 0.00490060
4.19181E+06 0.00487725
4.20656E+06 0.00485410
4.22132E+06 0.00483114
4.23607E+06 0.00480836
4.25083E+06 0.00478577
4.26558E+06 0.00476337
4.28033E+06 0.00474115
4.29509E+06 0.00471910
4.30984E+06 0.00469724
4.32460E+06 0.00467555
4.33935E+06 0.00465403
4.35411E+06 0.00463269
4.36886E+06 0.00461151
4.38361E+06 0.00459050
4.39837E+06 0.00456966
4.41312E+06 0.00454898
4.42788E+06 0.00452847
4.44263E+06 0.00450811
4.45739E+06 0.00448792
4.47214E+06 0.00446788
4.48818E+06 0.00444627
4.50421E+06 0.00442485
4.52025E+06 0.00440360
4.53628E+06 0.00438253
4.55232E+06 0.00436164
4.56835E+06 0.00434092
4.58439E+06 0.00432037
4.60043E+06 0.00429999
4.61646E+06 0.00427977
4.63250E+06 0.00425972
4.64853E+06 0.00423983
4.66457E+06 0.00422011
4.68060E+06 0.00420054
4.69664E+06 0.00418113
4.71268E+06 0.00416187
4.72871E+06 0.00414277
4.74543E+06 0.00412302
4.76215E+06 0.00410342
4.77887E+06 0.00408400
4.79559E+06 0.00406473
4.81230E+06 0.00404561
4.82902E+06 0.00402666
4.84574E+06 0.00400785
4.86246E+06 0.00398920
4.87965E+06 0.00397018
4.89685E+06 0.00395131
4.91404E+06 0.00393260
4.93123E+06 0.00391405
4.94842E+06 0.00389564
4.96562E+06 0.00387739
4.98281E+06 0.00385928
5.00000E+06 0.00384132
5.02078E+06 0.00381336
5.04156E+06 0.00378572
5.06234E+06 0.00375840
5.08312E+06 0.00373138
5.10390E+06 0.00370466
5.12468E+06 0.00367825
5.14546E+06 0.00365212
5.16624E+06 0.00362629
5.19085E+06 0.00359606
5.21546E+06 0.00356623
5.24007E+06 0.00353678
5.26469E+06 0.00350771
5.28930E+06 0.00347902
5.31391E+06 0.00345069
5.33852E+06 0.00342272
5.36313E+06 0.00339510
5.38868E+06 0.00336680
5.41423E+06 0.00333887
5.43978E+06 0.00331130
5.46533E+06 0.00328408
5.49088E+06 0.00325722
5.51643E+06 0.00323069
5.54198E+06 0.00320451
5.56753E+06 0.00317865
5.59405E+06 0.00315215
5.62058E+06 0.00312600
5.64710E+06 0.00310019
5.67363E+06 0.00307471
5.70015E+06 0.00304955
5.72667E+06 0.00302472
5.75320E+06 0.00300020
5.77972E+06 0.00297600
5.80726E+06 0.00295119
5.83479E+06 0.00292670
5.86233E+06 0.00290254
5.88986E+06 0.00287868
5.91740E+06 0.00285513
5.94493E+06 0.00283188
5.97247E+06 0.00280892
6.00000E+06 0.00278626
6.00737E+06 0.00277806
6.01473E+06 0.00276990
6.02210E+06 0.00276176
6.02947E+06 0.00275367
6.03684E+06 0.00274560
6.04420E+06 0.00273757
6.05157E+06 0.00272957
6.05894E+06 0.00272161
6.06630E+06 0.00271368
6.07367E+06 0.00270578
6.08104E+06 0.00269791
6.08840E+06 0.00269008
6.09577E+06 0.00268228
6.10314E+06 0.00267451
6.11050E+06 0.00266677
6.11787E+06 0.00265907
6.12524E+06 0.00265139
6.13260E+06 0.00264375
6.13997E+06 0.00263614
6.14734E+06 0.00262855
6.15471E+06 0.00262100
6.16207E+06 0.00261348
6.16944E+06 0.00260599
6.17681E+06 0.00259854
6.18417E+06 0.00259111
6.19154E+06 0.00258371
6.19891E+06 0.00257634
6.20627E+06 0.00256900
6.21364E+06 0.00256169
6.22101E+06 0.00255441
6.22837E+06 0.00254716
6.23574E+06 0.00253994
6.24340E+06 0.00253247
6.25105E+06 0.00252502
6.25871E+06 0.00251761
6.26637E+06 0.00251023
6.27402E+06 0.00250288
6.28168E+06 0.00249556
6.28933E+06 0.00248827
6.29699E+06 0.00248101
6.30465E+06 0.00247378
6.31230E+06 0.00246658
6.31996E+06 0.00245941
6.32762E+06 0.00245227
6.33527E+06 0.00244515
6.34293E+06 0.00243807
6.35058E+06 0.00243102
6.35824E+06 0.00242399
6.36590E+06 0.00241700
6.37355E+06 0.00241003
6.38121E+06 0.00240309
6.38887E+06 0.00239618
6.39652E+06 0.00238930
6.40418E+06 0.00238244
6.41183E+06 0.00237561
6.41949E+06 0.00236881
6.42715E+06 0.00236204
6.43480E+06 0.00235530
6.44246E+06 0.00234858
6.45012E+06 0.00234189
6.45777E+06 0.00233523
6.46543E+06 0.00232859
6.47308E+06 0.00232198
6.48074E+06 0.00231540
6.48870E+06 0.00230859
6.49666E+06 0.00230180
6.50461E+06 0.00229504
6.51257E+06 0.00228831
6.52053E+06 0.00228161
6.52848E+06 0.00227494
6.53644E+06 0.00226829
6.54440E+06 0.00226167
6.55236E+06 0.00225508
6.56031E+06 0.00224852
6.56827E+06 0.00224198
6.57623E+06 0.00223547
6.58418E+06 0.00222899
6.59214E+06 0.00222253
6.60010E+06 0.00221610
6.60806E+06 0.00220970
6.61601E+06 0.00220332
6.62397E+06 0.00219697
6.63193E+06 0.00219064
6.63988E+06 0.00218434
6.64784E+06 0.00217807
6.65580E+06 0.00217182
6.66376E+06 0.00216560
6.67171E+06 0.00215940
6.67967E+06 0.00215323
6.68763E+06 0.00214708
6.69559E+06 0.00214095
6.70354E+06 0.00213486
6.71150E+06 0.00212878
6.71946E+06 0.00212273
6.72741E+06 0.00211671
6.73537E+06 0.00211071
6.74364E+06 0.00210449
6.75191E+06 0.00209831
6.76018E+06 0.00209215
6.76845E+06 0.00208601
6.77672E+06 0.00207991
6.78499E+06 0.00207382
6.79326E+06 0.00206776
6.80153E+06 0.00206173
6.80980E+06 0.00205572
6.81807E+06 0.00204974
6.82634E+06 0.00204378
6.83461E+06 0.00203785
6.84288E+06 0.00203194
6.85115E+06 0.00202605
6.85942E+06 0.00202019
6.86769E+06 0.00201435
6.87596E+06 0.00200854
6.88423E+06 0.00200275
6.89250E+06 0.00199698
6.90076E+06 0.00199124
6.90903E+06 0.00198552
6.91730E+06 0.00197982
6.92557E+06 0.00197415
6.93384E+06 0.00196850
6.94211E+06 0.00196287
6.95038E+06 0.00195727
6.95865E+06 0.00195168
6.96692E+06 0.00194612
6.97519E+06 0.00194059
6.98346E+06 0.00193507
6.99173E+06 0.00192958
7.00000E+06 0.00192411
7.00952E+06 0.00191609
7.01904E+06 0.00190811
7.02856E+06 0.00190017
7.03808E+06 0.00189228
7.04759E+06 0.00188443
7.05711E+06 0.00187662
7.06663E+06 0.00186886
7.07615E+06 0.00186114
7.08567E+06 0.00185346
7.09519E+06 0.00184582
7.10471E+06 0.00183823
7.11423E+06 0.00183067
7.12374E+06 0.00182316
7.13326E+06 0.00181569
7.14278E+06 0.00180826
7.15230E+06 0.00180087
7.16182E+06 0.00179352
7.17134E+06 0.00178620
7.18086E+06 0.00177893
7.19038E+06 0.00177170
7.19989E+06 0.00176451
7.20941E+06 0.00175735
7.21893E+06 0.00175023
7.22845E+06 0.00174316
7.23797E+06 0.00173611
7.24749E+06 0.00172911
7.25701E+06 0.00172215
7.26653E+06 0.00171522
7.27604E+06 0.00170833
7.28556E+06 0.00170147
7.29508E+06 0.00169465
7.30460E+06 0.00168787
7.31547E+06 0.00168017
7.32633E+06 0.00167252
7.33720E+06 0.00166491
7.34806E+06 0.00165735
7.35893E+06 0.00164984
7.36979E+06 0.00164237
7.38066E+06 0.00163495
7.39153E+06 0.00162757
7.40239E+06 0.00162023
7.41326E+06 0.00161294
7.42412E+06 0.00160569
7.43499E+06 0.00159848
7.44585E+06 0.00159132
7.45672E+06 0.00158420
7.46759E+06 0.00157712
7.47845E+06 0.00157008
7.48932E+06 0.00156309
7.50018E+06 0.00155613
7.51105E+06 0.00154922
7.52191E+06 0.00154235
7.53278E+06 0.00153552
7.54364E+06 0.00152873
7.55451E+06 0.00152197
7.56538E+06 0.00151526
7.57624E+06 0.00150859
7.58711E+06 0.00150195
7.59797E+06 0.00149536
7.60884E+06 0.00148880
7.61970E+06 0.00148228
7.63057E+06 0.00147580
7.64144E+06 0.00146935
7.65230E+06 0.00146295
7.66317E+06 0.00145658
7.67403E+06 0.00145024
7.68490E+06 0.00144394
7.69576E+06 0.00143768
7.70663E+06 0.00143146
7.71749E+06 0.00142527
7.72836E+06 0.00141912
7.73923E+06 0.00141300
7.75009E+06 0.00140691
7.76096E+06 0.00140087
7.77182E+06 0.00139485
7.78269E+06 0.00138887
7.79355E+06 0.00138292
7.80442E+06 0.00137701
7.81529E+06 0.00137113
7.82615E+06 0.00136529
7.83702E+06 0.00135947
7.84788E+06 0.00135369
7.85875E+06 0.00134794
7.86961E+06 0.00134223
7.88048E+06 0.00133654
7.89134E+06 0.00133089
7.90221E+06 0.00132527
7.91308E+06 0.00131968
7.92394E+06 0.00131413
7.93481E+06 0.00130860
7.94567E+06 0.00130310
7.95654E+06 0.00129764
7.96740E+06 0.00129220
7.97827E+06 0.00128680
7.98914E+06 0.00128143
8.00000E+06 0.00127608
8.00758E+06 0.00127212
8.01517E+06 0.00126818
8.02275E+06 0.00126426
8.03033E+06 0.00126035
8.03791E+06 0.00125646
8.04550E+06 0.00125258
8.05308E+06 0.00124872
8.06066E+06 0.00124487
8.06824E+06 0.00124104
8.07583E+06 0.00123722
8.08341E+06 0.00123342
8.09099E+06 0.00122964
8.09857E+06 0.00122587
8.10616E+06 0.00122212
8.11374E+06 0.00121838
8.12132E+06 0.00121465
8.12890E+06 0.00121094
8.13649E+06 0.00120725
8.14407E+06 0.00120356
8.15165E+06 0.00119990
8.15923E+06 0.00119625
8.16682E+06 0.00119261
8.17440E+06 0.00118899
8.18198E+06 0.00118538
8.18956E+06 0.00118179
8.19715E+06 0.00117821
8.20473E+06 0.00117464
8.21231E+06 0.00117109
8.21989E+06 0.00116755
8.22748E+06 0.00116403
8.23506E+06 0.00116052
8.24264E+06 0.00115702
8.25022E+06 0.00115354
8.25781E+06 0.00115007
8.26539E+06 0.00114662
8.27297E+06 0.00114318
8.28055E+06 0.00113975
8.28814E+06 0.00113634
8.29572E+06 0.00113293
8.30330E+06 0.00112955
8.31088E+06 0.00112617
8.31847E+06 0.00112281
8.32605E+06 0.00111946
8.33363E+06 0.00111613
8.34121E+06 0.00111280
8.34880E+06 0.00110949
8.35638E+06 0.00110620
8.36396E+06 0.00110291
8.37154E+06 0.00109964
8.37913E+06 0.00109638
8.38671E+06 0.00109314
8.39429E+06 0.00108991
8.40187E+06 0.00108668
8.40946E+06 0.00108348
8.41704E+06 0.00108028
8.42462E+06 0.00107710
8.43220E+06 0.00107392
8.43979E+06 0.00107076
8.44737E+06 0.00106762
8.45495E+06 0.00106448
8.46253E+06 0.00106136
8.47012E+06 0.00105825
8.47770E+06 0.00105515
8.48528E+06 0.00105206
8.49033E+06 0.00105026
8.49538E+06 0.00104846
8.50043E+06 0.00104666
8.50548E+06 0.00104487
8.51053E+06 0.00104309
8.51558E+06 0.00104130
8.52063E+06 0.00103953
8.52567E+06 0.00103775
8.53072E+06 0.00103598
8.53577E+06 0.00103421
8.54082E+06 0.00103245
8.54587E+06 0.00103070
8.55092E+06 0.00102894
8.55597E+06 0.00102719
8.56102E+06 0.00102545
8.56607E+06 0.00102370
8.57112E+06 0.00102196
8.57617E+06 0.00102023
8.58122E+06 0.00101850
8.58627E+06 0.00101678
8.59132E+06 0.00101505
8.59636E+06 0.00101333
8.60141E+06 0.00101162
8.60646E+06 0.00100991
8.61151E+06 0.00100820
8.61656E+06 0.00100650
8.62161E+06 0.00100480
8.62666E+06 0.00100311
8.63171E+06 0.00100142
8.63676E+06 0.000999728
8.64181E+06 0.000998045
8.64686E+06 0.000996366
8.65191E+06 0.000994690
8.65695E+06 0.000993018
8.66200E+06 0.000991350
8.66705E+06 0.000989685
8.67210E+06 0.000988024
8.67715E+06 0.000986367
8.68220E+06 0.000984714
8.68725E+06 0.000983065
8.69230E+06 0.000981419
8.69735E+06 0.000979777
8.70240E+06 0.000978139
8.70745E+06 0.000976504
8.71250E+06 0.000974873
8.71755E+06 0.000973246
8.72259E+06 0.000971622
8.72764E+06 0.000970002
8.73269E+06 0.000968386
8.73774E+06 0.000966773
8.74279E+06 0.000965164
8.74784E+06 0.000963559
8.75289E+06 0.000961957
8.75794E+06 0.000960358
8.76299E+06 0.000958764
8.76804E+06 0.000957172
8.77309E+06 0.000955585
8.77814E+06 0.000954001
8.78319E+06 0.000952420
8.78823E+06 0.000950843
8.79328E+06 0.000949270
8.79833E+06 0.000947700
8.80338E+06 0.000946133
8.80843E+06 0.000944570
8.81442E+06 0.000942722
8.82040E+06 0.000940878
8.82639E+06 0.000939038
8.83238E+06 0.000937205
8.83836E+06 0.000935375
8.84435E+06 0.000933551
8.85034E+06 0.000931731
8.85632E+06 0.000929916
8.86231E+06 0.000928106
8.86830E+06 0.000926301
8.87428E+06 0.000924500
8.88027E+06 0.000922704
8.88626E+06 0.000920912
8.89224E+06 0.000919126
8.89823E+06 0.000917344
8.90422E+06 0.000915567
8.91020E+06 0.000913794
8.91619E+06 0.000912026
8.92218E+06 0.000910262
8.92816E+06 0.000908504
8.93415E+06 0.000906749
8.94014E+06 0.000905000
8.94612E+06 0.000903254
8.95211E+06 0.000901514
8.95810E+06 0.000899778
8.96408E+06 0.000898046
8.97007E+06 0.000896319
8.97605E+06 0.000894596
8.98204E+06 0.000892878
8.98803E+06 0.000891164
8.99401E+06 0.000889455
9.00000E+06 0.000887750
9.00761E+06 0.000886517
9.01521E+06 0.000885287
9.02282E+06 0.000884060
9.03043E+06 0.000882835
9.03803E+06 0.000881613
9.04564E+06 0.000880394
9.05325E+06 0.000879177
9.06085E+06 0.000877964
9.06846E+06 0.000876753
9.07607E+06 0.000875544
9.08368E+06 0.000874338
9.09128E+06 0.000873135
9.09889E+06 0.000871935
9.10650E+06 0.000870737
9.11410E+06 0.000869542
9.12171E+06 0.000868350
9.12932E+06 0.000867160
9.13692E+06 0.000865972
9.14453E+06 0.000864788
9.15214E+06 0.000863606
9.15974E+06 0.000862426
9.16735E+06 0.000861250
9.17496E+06 0.000860075
9.18256E+06 0.000858904
9.19017E+06 0.000857735
9.19778E+06 0.000856568
9.20538E+06 0.000855404
9.21299E+06 0.000854243
9.22060E+06 0.000853084
9.22820E+06 0.000851927
9.23581E+06 0.000850773
9.24342E+06 0.000849622
9.25102E+06 0.000848473
9.25863E+06 0.000847327
9.26624E+06 0.000846183
9.27384E+06 0.000845041
9.28145E+06 0.000843903
9.28906E+06 0.000842766
9.29666E+06 0.000841632
9.30427E+06 0.000840501
9.31188E+06 0.000839371
9.31948E+06 0.000838245
9.32709E+06 0.000837120
9.33470E+06 0.000835999
9.34230E+06 0.000834879
9.34991E+06 0.000833762
9.35752E+06 0.000832647
9.36512E+06 0.000831535
9.37273E+06 0.000830426
9.38034E+06 0.000829318
9.38794E+06 0.000828213
9.39555E+06 0.000827110
9.40316E+06 0.000826010
9.41076E+06 0.000824912
9.41837E+06 0.000823816
9.42598E+06 0.000822723
9.43358E+06 0.000821632
9.44119E+06 0.000820543
9.44880E+06 0.000819457
9.45640E+06 0.000818373
9.46401E+06 0.000817291
9.47162E+06 0.000816212
9.47922E+06 0.000815135
9.48683E+06 0.000814060
9.49674E+06 0.000813421
9.50665E+06 0.000812784
9.51656E+06 0.000812148
9.52648E+06 0.000811513
9.53639E+06 0.000810879
9.54630E+06 0.000810246
9.55621E+06 0.000809614
9.56612E+06 0.000808984
9.57603E+06 0.000808354
9.58594E+06 0.000807726
9.59585E+06 0.000807099
9.60577E+06 0.000806473
9.61568E+06 0.000805848
9.62559E+06 0.000805224
9.63550E+06 0.000804602
9.64541E+06 0.000803980
9.65649E+06 0.000803287
9.66757E+06 0.000802595
9.67865E+06 0.000801904
9.68973E+06 0.000801215
9.70082E+06 0.000800527
9.71190E+06 0.000799840
9.72298E+06 0.000799155
9.73406E+06 0.000798471
9.74514E+06 0.000797789
9.75622E+06 0.000797107
9.76730E+06 0.000796428
9.77838E+06 0.000795749
9.78946E+06 0.000795072
9.80054E+06 0.000794396
9.81163E+06 0.000793722
9.82271E+06 0.000793049
9.83379E+06 0.000792377
9.84487E+06 0.000791707
9.85595E+06 0.000791038
9.86703E+06 0.000790370
9.87811E+06 0.000789704
9.88919E+06 0.000789038
9.90027E+06 0.000788375
9.91135E+06 0.000787712
9.92243E+06 0.000787051
9.93352E+06 0.000786391
9.94460E+06 0.000785732
9.95568E+06 0.000785075
9.96676E+06 0.000784419
9.97784E+06 0.000783764
9.98892E+06 0.000783110
1.00000E+07 0.000782458
1.00115E+07 0.000783551
1.00230E+07 0.000784644
1.00345E+07 0.000785737
1.00460E+07 0.000786831
1.00529E+07 0.000787488
1.00598E+07 0.000788145
1.00667E+07 0.000788803
1.00736E+07 0.000789460
1.00806E+07 0.000790118
1.00875E+07 0.000790776
1.00944E+07 0.000791433
1.01013E+07 0.000792090
1.01082E+07 0.000792748
1.01151E+07 0.000793406
1.01220E+07 0.000794065
1.01289E+07 0.000794722
1.01358E+07 0.000795380
1.01427E+07 0.000796039
1.01496E+07 0.000796697
1.01565E+07 0.000797355
1.01634E+07 0.000798014
1.01704E+07 0.000798673
1.01773E+07 0.000799332
1.01842E+07 0.000799990
1.01911E+07 0.000800649
1.01980E+07 0.000801308
1.02049E+07 0.000801968
1.02118E+07 0.000802626
1.02187E+07 0.000803286
1.02256E+07 0.000803945
1.02325E+07 0.000804605
1.02394E+07 0.000805264
1.02463E+07 0.000805924
1.02532E+07 0.000806584
1.02602E+07 0.000807244
1.02671E+07 0.000807903
1.02740E+07 0.000808563
1.02809E+07 0.000809224
1.02878E+07 0.000809884
1.02947E+07 0.000810545
1.03016E+07 0.000811206
1.03085E+07 0.000811866
1.03154E+07 0.000812527
1.03223E+07 0.000813187
1.03292E+07 0.000813848
1.03361E+07 0.000814510
1.03431E+07 0.000815171
1.03500E+07 0.000815831
1.03569E+07 0.000816493
1.03638E+07 0.000817154
1.03707E+07 0.000817816
1.03776E+07 0.000818477
1.03845E+07 0.000819138
1.03914E+07 0.000819800
1.03983E+07 0.000820462
1.04052E+07 0.000821123
1.04121E+07 0.000821786
1.04190E+07 0.000822448
1.04259E+07 0.000823110
1.04328E+07 0.000823772
1.04398E+07 0.000824434
1.04467E+07 0.000825097
1.04536E+07 0.000825760
1.04605E+07 0.000826422
1.04674E+07 0.000827085
1.04743E+07 0.000827748
1.04812E+07 0.000828411
1.04881E+07 0.000829073
1.04961E+07 0.000830340
1.05041E+07 0.000831609
1.05121E+07 0.000832878
1.05201E+07 0.000834148
1.05281E+07 0.000835419
1.05361E+07 0.000836691
1.05441E+07 0.000837964
1.05521E+07 0.000839237
1.05601E+07 0.000840512
1.05681E+07 0.000841788
1.05761E+07 0.000843065
1.05841E+07 0.000844343
1.05921E+07 0.000845621
1.06001E+07 0.000846901
1.06081E+07 0.000848182
1.06161E+07 0.000849462
1.06241E+07 0.000850745
1.06321E+07 0.000852029
1.06401E+07 0.000853313
1.06481E+07 0.000854599
1.06561E+07 0.000855886
1.06641E+07 0.000857173
1.06721E+07 0.000858462
1.06801E+07 0.000859750
1.06881E+07 0.000861040
1.06961E+07 0.000862332
1.07041E+07 0.000863624
1.07121E+07 0.000864916
1.07201E+07 0.000866211
1.07281E+07 0.000867506
1.07361E+07 0.000868802
1.07441E+07 0.000870098
1.07521E+07 0.000871396
1.07601E+07 0.000872695
1.07681E+07 0.000873996
1.07761E+07 0.000875297
1.07841E+07 0.000876599
1.07921E+07 0.000877902
1.08001E+07 0.000879206
1.08080E+07 0.000880510
1.08160E+07 0.000881816
1.08240E+07 0.000883123
1.08320E+07 0.000884431
1.08400E+07 0.000885739
1.08480E+07 0.000887049
1.08560E+07 0.000888360
1.08640E+07 0.000889672
1.08720E+07 0.000890983
1.08800E+07 0.000892297
1.08880E+07 0.000893612
1.08960E+07 0.000894928
1.09040E+07 0.000896244
1.09120E+07 0.000897562
1.09200E+07 0.000898880
1.09280E+07 0.000900200
1.09360E+07 0.000901519
1.09440E+07 0.000902841
1.09520E+07 0.000904163
1.09600E+07 0.000905486
1.09680E+07 0.000906809
1.09760E+07 0.000908135
1.09840E+07 0.000909461
1.09920E+07 0.000910788
1.10000E+07 0.000912115
1.10098E+07 0.000913942
1.10197E+07 0.000915770
1.10295E+07 0.000917601
1.10393E+07 0.000919433
1.10492E+07 0.000921268
1.10590E+07 0.000923104
1.10689E+07 0.000924943
1.10787E+07 0.000926783
1.10885E+07 0.000928627
1.10984E+07 0.000930470
1.11082E+07 0.000932318
1.11180E+07 0.000934166
1.11279E+07 0.000936017
1.11377E+07 0.000937869
1.11475E+07 0.000939723
1.11574E+07 0.000941579
1.11672E+07 0.000943438
1.11770E+07 0.000945298
1.11869E+07 0.000947162
1.11967E+07 0.000949026
1.12065E+07 0.000950894
1.12164E+07 0.000952762
1.12262E+07 0.000954634
1.12360E+07 0.000956506
1.12459E+07 0.000958382
1.12557E+07 0.000960258
1.12655E+07 0.000962138
1.12754E+07 0.000964018
1.12852E+07 0.000965903
1.12950E+07 0.000967787
1.13049E+07 0.000969673
1.13147E+07 0.000971561
1.13215E+07 0.000972873
1.13283E+07 0.000974185
1.13352E+07 0.000975498
1.13420E+07 0.000976813
1.13488E+07 0.000978128
1.13556E+07 0.000979444
1.13624E+07 0.000980761
1.13693E+07 0.000982077
1.13761E+07 0.000983396
1.13829E+07 0.000984717
1.13897E+07 0.000986038
1.13965E+07 0.000987360
1.14034E+07 0.000988683
1.14102E+07 0.000990007
1.14170E+07 0.000991332
1.14238E+07 0.000992656
1.14328E+07 0.000994409
1.14418E+07 0.000996162
1.14508E+07 0.000997919
1.14598E+07 0.000999675
1.14688E+07 0.00100144
1.14778E+07 0.00100320
1.14868E+07 0.00100496
1.14958E+07 0.00100672
1.15048E+07 0.00100849
1.15138E+07 0.00101025
1.15228E+07 0.00101202
1.15318E+07 0.00101379
1.15409E+07 0.00101557
1.15499E+07 0.00101734
1.15589E+07 0.00101912
1.15679E+07 0.00102089
1.15769E+07 0.00102267
1.15859E+07 0.00102445
1.15949E+07 0.00102624
1.16039E+07 0.00102802
1.16129E+07 0.00102981
1.16219E+07 0.00103160
1.16309E+07 0.00103339
1.16399E+07 0.00103518
1.16489E+07 0.00103697
1.16579E+07 0.00103877
1.16669E+07 0.00104056
1.16759E+07 0.00104236
1.16849E+07 0.00104416
1.16939E+07 0.00104596
1.17029E+07 0.00104776
1.17119E+07 0.00104957
1.17209E+07 0.00105138
1.17299E+07 0.00105318
1.17389E+07 0.00105500
1.17479E+07 0.00105681
1.17569E+07 0.00105862
1.17659E+07 0.00106044
1.17749E+07 0.00106225
1.17839E+07 0.00106407
1.17929E+07 0.00106589
1.18019E+07 0.00106772
1.18109E+07 0.00106954
1.18199E+07 0.00107136
1.18290E+07 0.00107319
1.18380E+07 0.00107502
1.18470E+07 0.00107685
1.18560E+07 0.00107868
1.18650E+07 0.00108052
1.18740E+07 0.00108235
1.18830E+07 0.00108419
1.18920E+07 0.00108603
1.19010E+07 0.00108788
1.19100E+07 0.00108972
1.19190E+07 0.00109156
1.19280E+07 0.00109341
1.19370E+07 0.00109526
1.19460E+07 0.00109711
1.19550E+07 0.00109896
1.19640E+07 0.00110081
1.19730E+07 0.00110267
1.19820E+07 0.00110452
1.19910E+07 0.00110638
1.20000E+07 0.00110824
1.20077E+07 0.00110800
1.20153E+07 0.00110775
1.20230E+07 0.00110751
1.20306E+07 0.00110727
1.20383E+07 0.00110703
1.20459E+07 0.00110678
1.20536E+07 0.00110654
1.20613E+07 0.00110630
1.20689E+07 0.00110606
1.20766E+07 0.00110582
1.20842E+07 0.00110558
1.20919E+07 0.00110534
1.20995E+07 0.00110509
1.21072E+07 0.00110485
1.21149E+07 0.00110461
1.21225E+07 0.00110437
1.21302E+07 0.00110413
1.21378E+07 0.00110389
1.21455E+07 0.00110365
1.21531E+07 0.00110341
1.21608E+07 0.00110318
1.21684E+07 0.00110294
1.21761E+07 0.00110270
1.21838E+07 0.00110246
1.21914E+07 0.00110222
1.21991E+07 0.00110198
1.22067E+07 0.00110174
1.22144E+07 0.00110151
1.22220E+07 0.00110127
1.22297E+07 0.00110103
1.22374E+07 0.00110080
1.22450E+07 0.00110056
1.22527E+07 0.00110032
1.22603E+07 0.00110009
1.22680E+07 0.00109985
1.22756E+07 0.00109961
1.22833E+07 0.00109938
1.22909E+07 0.00109914
1.22986E+07 0.00109891
1.23063E+07 0.00109867
1.23139E+07 0.00109844
1.23216E+07 0.00109820
1.23292E+07 0.00109797
1.23369E+07 0.00109773
1.23445E+07 0.00109750
1.23522E+07 0.00109726
1.23599E+07 0.00109703
1.23675E+07 0.00109679
1.23752E+07 0.00109656
1.23828E+07 0.00109633
1.23905E+07 0.00109609
1.23981E+07 0.00109586
1.24058E+07 0.00109563
1.24134E+07 0.00109540
1.24211E+07 0.00109516
1.24288E+07 0.00109493
1.24364E+07 0.00109470
1.24441E+07 0.00109447
1.24517E+07 0.00109424
1.24594E+07 0.00109400
1.24670E+07 0.00109377
1.24747E+07 0.00109354
1.24824E+07 0.00109331
1.24900E+07 0.00109308
1.24980E+07 0.00109322
1.25059E+07 0.00109336
1.25139E+07 0.00109350
1.25219E+07 0.00109364
1.25299E+07 0.00109378
1.25378E+07 0.00109391
1.25458E+07 0.00109405
1.25538E+07 0.00109419
1.25617E+07 0.00109433
1.25697E+07 0.00109447
1.25777E+07 0.00109461
1.25856E+07 0.00109474
1.25936E+07 0.00109488
1.26016E+07 0.00109502
1.26095E+07 0.00109516
1.26175E+07 0.00109530
1.26255E+07 0.00109543
1.26334E+07 0.00109557
1.26414E+07 0.00109571
1.26494E+07 0.00109585
1.26574E+07 0.00109599
1.26653E+07 0.00109612
1.26733E+07 0.00109626
1.26813E+07 0.00109640
1.26892E+07 0.00109654
1.26972E+07 0.00109667
1.27052E+07 0.00109681
1.27131E+07 0.00109695
1.27211E+07 0.00109708
1.27291E+07 0.00109722
1.27370E+07 0.00109736
1.27450E+07 0.00109750
1.27530E+07 0.00109763
1.27609E+07 0.00109777
1.27689E+07 0.00109791
1.27769E+07 0.00109804
1.27849E+07 0.00109818
1.27928E+07 0.00109832
1.28008E+07 0.00109845
1.28088E+07 0.00109859
1.28167E+07 0.00109872
1.28247E+07 0.00109886
1.28327E+07 0.00109900
1.28406E+07 0.00109913
1.28486E+07 0.00109927
1.28566E+07 0.00109941
1.28645E+07 0.00109954
1.28725E+07 0.00109968
1.28805E+07 0.00109981
1.28884E+07 0.00109995
1.28964E+07 0.00110008
1.29044E+07 0.00110022
1.29124E+07 0.00110035
1.29203E+07 0.00110049
1.29283E+07 0.00110063
1.29363E+07 0.00110076
1.29442E+07 0.00110090
1.29522E+07 0.00110103
1.29602E+07 0.00110117
1.29681E+07 0.00110130
1.29761E+07 0.00110144
1.29841E+07 0.00110157
1.29920E+07 0.00110171
1.30000E+07 0.00110184
1.30078E+07 0.00110118
1.30156E+07 0.00110052
1.30234E+07 0.00109986
1.30313E+07 0.00109920
1.30391E+07 0.00109854
1.30469E+07 0.00109789
1.30547E+07 0.00109723
1.30625E+07 0.00109658
1.30703E+07 0.00109592
1.30781E+07 0.00109527
1.30859E+07 0.00109462
1.30938E+07 0.00109396
1.31016E+07 0.00109331
1.31094E+07 0.00109266
1.31172E+07 0.00109201
1.31250E+07 0.00109136
1.31328E+07 0.00109071
1.31406E+07 0.00109007
1.31484E+07 0.00108942
1.31563E+07 0.00108877
1.31641E+07 0.00108813
1.31719E+07 0.00108748
1.31797E+07 0.00108684
1.31875E+07 0.00108620
1.31953E+07 0.00108555
1.32031E+07 0.00108491
1.32109E+07 0.00108427
1.32188E+07 0.00108363
1.32266E+07 0.00108299
1.32344E+07 0.00108236
1.32422E+07 0.00108172
1.32500E+07 0.00108108
1.32578E+07 0.00108044
1.32656E+07 0.00107981
1.32734E+07 0.00107918
1.32813E+07 0.00107854
1.32891E+07 0.00107791
1.32969E+07 0.00107728
1.33047E+07 0.00107664
1.33125E+07 0.00107601
1.33203E+07 0.00107538
1.33281E+07 0.00107475
1.33359E+07 0.00107413
1.33438E+07 0.00107350
1.33516E+07 0.00107287
1.33594E+07 0.00107224
1.33672E+07 0.00107162
1.33750E+07 0.00107099
1.33828E+07 0.00107037
1.33906E+07 0.00106974
1.33984E+07 0.00106912
1.34063E+07 0.00106850
1.34141E+07 0.00106788
1.34219E+07 0.00106726
1.34297E+07 0.00106664
1.34375E+07 0.00106602
1.34453E+07 0.00106540
1.34531E+07 0.00106478
1.34609E+07 0.00106417
1.34688E+07 0.00106355
1.34766E+07 0.00106293
1.34844E+07 0.00106232
1.34922E+07 0.00106170
1.35000E+07 0.00106109
1.35078E+07 0.00106048
1.35156E+07 0.00105987
1.35234E+07 0.00105925
1.35313E+07 0.00105864
1.35391E+07 0.00105803
1.35469E+07 0.00105742
1.35547E+07 0.00105682
1.35625E+07 0.00105621
1.35703E+07 0.00105560
1.35781E+07 0.00105499
1.35859E+07 0.00105439
1.35938E+07 0.00105378
1.36016E+07 0.00105318
1.36094E+07 0.00105258
1.36172E+07 0.00105197
1.36250E+07 0.00105137
1.36328E+07 0.00105077
1.36406E+07 0.00105017
1.36484E+07 0.00104957
1.36563E+07 0.00104897
1.36641E+07 0.00104837
1.36719E+07 0.00104777
1.36797E+07 0.00104717
1.36875E+07 0.00104658
1.36953E+07 0.00104598
1.37031E+07 0.00104539
1.37109E+07 0.00104479
1.37188E+07 0.00104420
1.37266E+07 0.00104360
1.37344E+07 0.00104301
1.37422E+07 0.00104242
1.37500E+07 0.00104183
1.37578E+07 0.00104124
1.37656E+07 0.00104065
1.37734E+07 0.00104006
1.37813E+07 0.00103947
1.37891E+07 0.00103888
1.37969E+07 0.00103829
1.38047E+07 0.00103771
1.38125E+07 0.00103712
1.38203E+07 0.00103653
1.38281E+07 0.00103595
1.38359E+07 0.00103537
1.38438E+07 0.00103478
1.38516E+07 0.00103420
1.38594E+07 0.00103362
1.38672E+07 0.00103304
1.38750E+07 0.00103246
1.38828E+07 0.00103187
1.38906E+07 0.00103130
1.38984E+07 0.00103072
1.39063E+07 0.00103014
1.39141E+07 0.00102956
1.39219E+07 0.00102898
1.39297E+07 0.00102841
1.39375E+07 0.00102783
1.39453E+07 0.00102726
1.39531E+07 0.00102668
1.39609E+07 0.00102611
1.39688E+07 0.00102554
1.39766E+07 0.00102496
1.39844E+07 0.00102439
1.39922E+07 0.00102382
1.40000E+07 0.00102325
1.40156E+07 0.00102193
1.40313E+07 0.00102062
1.40469E+07 0.00101931
1.40625E+07 0.00101800
1.40781E+07 0.00101670
1.40938E+07 0.00101539
1.41094E+07 0.00101410
1.41250E+07 0.00101280
1.41406E+07 0.00101151
1.41563E+07 0.00101022
1.41719E+07 0.00100893
1.41875E+07 0.00100765
1.42031E+07 0.00100637
1.42188E+07 0.00100509
1.42344E+07 0.00100382
1.42500E+07 0.00100255
1.42656E+07 0.00100128
1.42813E+07 0.00100001
1.42969E+07 0.000998751
1.43125E+07 0.000997492
1.43281E+07 0.000996236
1.43438E+07 0.000994983
1.43594E+07 0.000993733
1.43750E+07 0.000992486
1.43906E+07 0.000991241
1.44063E+07 0.000990000
1.44219E+07 0.000988761
1.44375E+07 0.000987525
1.44531E+07 0.000986292
1.44688E+07 0.000985063
1.44844E+07 0.000983835
1.45000E+07 0.000982611
1.45156E+07 0.000981390
1.45313E+07 0.000980171
1.45469E+07 0.000978955
1.45625E+07 0.000977743
1.45781E+07 0.000976532
1.45938E+07 0.000975325
1.46094E+07 0.000974120
1.46250E+07 0.000972919
1.46406E+07 0.000971719
1.46563E+07 0.000970524
1.46719E+07 0.000969330
1.46875E+07 0.000968139
1.47031E+07 0.000966951
1.47188E+07 0.000965766
1.47344E+07 0.000964583
1.47500E+07 0.000963403
1.47656E+07 0.000962226
1.47813E+07 0.000961051
1.47969E+07 0.000959879
1.48125E+07 0.000958710
1.48281E+07 0.000957543
1.48438E+07 0.000956380
1.48594E+07 0.000955218
1.48750E+07 0.000954060
1.48906E+07 0.000952903
1.49063E+07 0.000951750
1.49219E+07 0.000950599
1.49375E+07 0.000949451
1.49531E+07 0.000948305
1.49688E+07 0.000947163
1.49844E+07 0.000946022
1.50000E+07 0.000944884
1.50313E+07 0.000943072
1.50625E+07 0.000941268
1.50938E+07 0.000939471
1.51250E+07 0.000937681
1.51563E+07 0.000935898
1.51875E+07 0.000934122
1.52188E+07 0.000932353
1.52500E+07 0.000930591
1.52813E+07 0.000928837
1.53125E+07 0.000927088
1.53438E+07 0.000925347
1.53750E+07 0.000923613
1.54063E+07 0.000921885
1.54375E+07 0.000920164
1.54688E+07 0.000918450
1.55000E+07 0.000916742
1.55313E+07 0.000915041
1.55625E+07 0.000913347
1.55938E+07 0.000911659
1.56250E+07 0.000909978
1.56563E+07 0.000908303
1.56875E+07 0.000906634
1.57188E+07 0.000904972
1.57500E+07 0.000903316
1.57813E+07 0.000901666
1.58125E+07 0.000900023
1.58438E+07 0.000898386
1.58750E+07 0.000896755
1.59063E+07 0.000895131
1.59375E+07 0.000893512
1.59688E+07 0.000891899
1.60000E+07 0.000890293
1.60313E+07 0.000889261
1.60625E+07 0.000888233
1.60938E+07 0.000887207
1.61250E+07 0.000886185
1.61563E+07 0.000885166
1.61875E+07 0.000884150
1.62188E+07 0.000883137
1.62500E+07 0.000882127
1.62813E+07 0.000881121
1.63125E+07 0.000880117
1.63438E+07 0.000879117
1.63750E+07 0.000878119
1.64063E+07 0.000877125
1.64375E+07 0.000876133
1.64688E+07 0.000875145
1.65000E+07 0.000874159
1.65313E+07 0.000873177
1.65625E+07 0.000872198
1.65938E+07 0.000871221
1.66250E+07 0.000870247
1.66563E+07 0.000869277
1.66875E+07 0.000868309
1.67188E+07 0.000867344
1.67500E+07 0.000866382
1.67813E+07 0.000865423
1.68125E+07 0.000864466
1.68438E+07 0.000863513
1.68750E+07 0.000862562
1.69063E+07 0.000861614
1.69375E+07 0.000860669
1.69688E+07 0.000859727
1.70000E+07 0.000858787
1.70432E+07 0.000858168
1.70864E+07 0.000857550
1.71296E+07 0.000856935
1.71728E+07 0.000856321
1.72160E+07 0.000855710
1.72592E+07 0.000855101
1.73024E+07 0.000854493
1.73456E+07 0.000853888
1.73888E+07 0.000853284
1.74319E+07 0.000852682
1.74751E+07 0.000852082
1.75183E+07 0.000851485
1.75615E+07 0.000850888
1.76047E+07 0.000850294
1.76479E+07 0.000849702
1.76911E+07 0.000849112
1.77297E+07 0.000848586
1.77683E+07 0.000848061
1.78069E+07 0.000847538
1.78456E+07 0.000847016
1.78842E+07 0.000846495
1.79228E+07 0.000845977
1.79614E+07 0.000845459
1.80000E+07 0.000844943
1.80313E+07 0.000844944
1.80625E+07 0.000844945
1.80938E+07 0.000844946
1.81250E+07 0.000844948
1.81563E+07 0.000844949
1.81875E+07 0.000844950
1.82188E+07 0.000844951
1.82500E+07 0.000844952
1.82813E+07 0.000844953
1.83125E+07 0.000844954
1.83438E+07 0.000844955
1.83750E+07 0.000844956
1.84063E+07 0.000844957
1.84375E+07 0.000844959
1.84688E+07 0.000844960
1.85000E+07 0.000844961
1.85313E+07 0.000844962
1.85625E+07 0.000844963
1.85938E+07 0.000844964
1.86250E+07 0.000844965
1.86563E+07 0.000844966
1.86875E+07 0.000844967
1.87188E+07 0.000844968
1.87500E+07 0.000844969
1.87813E+07 0.000844971
1.88125E+07 0.000844972
1.88438E+07 0.000844973
1.88750E+07 0.000844974
1.89063E+07 0.000844975
1.89375E+07 0.000844976
1.89688E+07 0.000844977
1.90000E+07 0.000844978
1.90284E+07 0.000845287
1.90567E+07 0.000845596
1.90851E+07 0.000845905
1.91135E+07 0.000846213
1.91418E+07 0.000846521
1.91702E+07 0.000846828
1.91985E+07 0.000847135
1.92269E+07 0.000847442
1.92553E+07 0.000847749
1.92836E+07 0.000848055
1.93120E+07 0.000848360
1.93404E+07 0.000848666
1.93687E+07 0.000848971
1.93971E+07 0.000849276
1.94254E+07 0.000849580
1.94538E+07 0.000849884
1.95167E+07 0.000850557
1.95469E+07 0.000850880
1.95771E+07 0.000851202
1.96073E+07 0.000851524
1.96375E+07 0.000851846
1.96677E+07 0.000852167
1.96979E+07 0.000852488
1.97282E+07 0.000852809
1.97584E+07 0.000853129
1.97886E+07 0.000853448
1.98188E+07 0.000853768
1.98490E+07 0.000854087
1.98792E+07 0.000854405
1.99094E+07 0.000854724
1.99396E+07 0.000855041
1.99698E+07 0.000855359
2.00000E+07 0.000855676
