Sr-84(n,g) ENDFB-8.0
Energy(eV) XS(b)
1.00000E-05 41.3423
1.03125E-05 40.7111
1.06250E-05 40.1079
1.09375E-05 39.5308
1.12500E-05 38.9779
1.15625E-05 38.4476
1.18750E-05 37.9383
1.21875E-05 37.4488
1.25000E-05 36.9777
1.28125E-05 36.5240
1.31250E-05 36.0865
1.34375E-05 35.6645
1.37500E-05 35.2569
1.43750E-05 34.4819
1.50000E-05 33.7559
1.56250E-05 33.0739
1.62500E-05 32.4316
1.68750E-05 31.8253
1.75000E-05 31.2519
1.81250E-05 30.7083
1.87500E-05 30.1922
1.93750E-05 29.7012
2.00000E-05 29.2334
2.09375E-05 28.5715
2.18750E-05 27.9525
2.28125E-05 27.3721
2.37500E-05 26.8264
2.46875E-05 26.3122
2.56250E-05 25.8263
2.65625E-05 25.3665
2.75000E-05 24.9304
2.84375E-05 24.5160
2.93750E-05 24.1216
3.03125E-05 23.7457
3.12500E-05 23.3868
3.21875E-05 23.0437
3.31250E-05 22.7152
3.40625E-05 22.4004
3.50000E-05 22.0984
3.59375E-05 21.8083
3.68750E-05 21.5293
3.78125E-05 21.2607
3.87500E-05 21.0019
3.96875E-05 20.7524
4.06250E-05 20.5115
4.25000E-05 20.0540
4.43750E-05 19.6257
4.62500E-05 19.2238
4.81250E-05 18.8456
5.00000E-05 18.4889
5.15625E-05 18.2066
5.31250E-05 17.9368
5.46875E-05 17.6787
5.62500E-05 17.4315
5.78125E-05 17.1943
5.93750E-05 16.9665
6.09375E-05 16.7476
6.25000E-05 16.5369
6.40625E-05 16.3340
6.56250E-05 16.1384
6.71875E-05 15.9496
6.87500E-05 15.7673
7.18750E-05 15.4208
7.50000E-05 15.0961
7.81250E-05 14.7911
8.12500E-05 14.5039
8.43750E-05 14.2327
8.75000E-05 13.9763
9.06250E-05 13.7332
9.37500E-05 13.5024
9.68750E-05 13.2828
0.000100000 13.0736
0.000103125 12.8740
0.000106250 12.6833
0.000109375 12.5008
0.000112500 12.3259
0.000115625 12.1582
0.000118750 11.9972
0.000121875 11.8423
0.000125000 11.6934
0.000128125 11.5499
0.000131250 11.4116
0.000134375 11.2781
0.000137500 11.1492
0.000143750 10.9041
0.000150000 10.6745
0.000156250 10.4589
0.000162500 10.2558
0.000168750 10.0641
0.000175000 9.88271
0.000181250 9.71082
0.000187500 9.54760
0.000193750 9.39235
0.000200000 9.24443
0.000209375 9.03509
0.000218750 8.83937
0.000228125 8.65583
0.000237500 8.48327
0.000246875 8.32064
0.000256250 8.16701
0.000265625 8.02159
0.000275000 7.88368
0.000284375 7.75264
0.000293750 7.62792
0.000303125 7.50904
0.000312500 7.39555
0.000321875 7.28705
0.000331250 7.18319
0.000340625 7.08365
0.000350000 6.98814
0.000359375 6.89638
0.000368750 6.80815
0.000378125 6.72323
0.000387500 6.64140
0.000396875 6.56249
0.000406250 6.48633
0.000425000 6.34163
0.000443750 6.20621
0.000462500 6.07911
0.000481250 5.95951
0.000500000 5.84670
0.000515625 5.75743
0.000531250 5.67213
0.000546875 5.59052
0.000562500 5.51232
0.000578125 5.43732
0.000593750 5.36530
0.000609375 5.29607
0.000625000 5.22945
0.000640625 5.16528
0.000656250 5.10342
0.000671875 5.04373
0.000687500 4.98609
0.000718750 4.87649
0.000750000 4.77382
0.000781250 4.67737
0.000812500 4.58654
0.000843750 4.50080
0.000875000 4.41970
0.000906250 4.34283
0.000937500 4.26984
0.000968750 4.20041
0.00100000 4.13425
0.00103125 4.07113
0.00106250 4.01082
0.00109375 3.95311
0.00112500 3.89782
0.00115625 3.84478
0.00118750 3.79386
0.00121875 3.74490
0.00125000 3.69779
0.00128125 3.65242
0.00131250 3.60868
0.00134375 3.56647
0.00137500 3.52571
0.00143750 3.44821
0.00150000 3.37561
0.00156250 3.30741
0.00162500 3.24318
0.00168750 3.18256
0.00175000 3.12521
0.00181250 3.07086
0.00187500 3.01924
0.00193750 2.97014
0.00200000 2.92337
0.00209375 2.85717
0.00218750 2.79527
0.00228125 2.73723
0.00237500 2.68267
0.00246875 2.63124
0.00256250 2.58265
0.00265625 2.53667
0.00275000 2.49305
0.00284375 2.45162
0.00293750 2.41218
0.00303125 2.37458
0.00312500 2.33869
0.00321875 2.30438
0.00331250 2.27154
0.00340625 2.24006
0.00350000 2.20986
0.00359375 2.18084
0.00368750 2.15294
0.00378125 2.12608
0.00387500 2.10021
0.00396875 2.07525
0.00406250 2.05117
0.00425000 2.00541
0.00443750 1.96259
0.00462500 1.92239
0.00481250 1.88457
0.00500000 1.84890
0.00515625 1.82067
0.00531250 1.79370
0.00546875 1.76789
0.00562500 1.74316
0.00578125 1.71945
0.00593750 1.69667
0.00609375 1.67478
0.00625000 1.65371
0.00640625 1.63342
0.00656250 1.61386
0.00671875 1.59499
0.00687500 1.57676
0.00718750 1.54210
0.00750000 1.50963
0.00781250 1.47913
0.00812500 1.45041
0.00843750 1.42330
0.00875000 1.39765
0.00906250 1.37334
0.00937500 1.35026
0.00968750 1.32830
0.0100000 1.30738
0.0103125 1.28742
0.0106250 1.26835
0.0109375 1.25010
0.0112500 1.23261
0.0115625 1.21584
0.0118750 1.19974
0.0121875 1.18426
0.0125000 1.16937
0.0128125 1.15502
0.0131250 1.14119
0.0134375 1.12784
0.0137500 1.11495
0.0143750 1.09045
0.0150000 1.06749
0.0156250 1.04593
0.0162500 1.02562
0.0168750 1.00645
0.0175000 0.988310
0.0181250 0.971120
0.0187500 0.954797
0.0193750 0.939270
0.0200000 0.924476
0.0206625 0.909534
0.0213250 0.895293
0.0219875 0.881702
0.0226500 0.868711
0.0233125 0.856279
0.0239750 0.844365
0.0246375 0.832936
0.0253000 0.821959
0.0264578 0.803775
0.0276156 0.786749
0.0287734 0.770762
0.0299313 0.755713
0.0310891 0.741513
0.0322469 0.728085
0.0334047 0.715362
0.0345625 0.703283
0.0355274 0.693671
0.0364922 0.684442
0.0374570 0.675571
0.0384219 0.667036
0.0393867 0.658816
0.0403516 0.650892
0.0413164 0.643247
0.0422813 0.635865
0.0442109 0.621833
0.0461406 0.608690
0.0480703 0.596347
0.0500000 0.584726
0.0515625 0.575798
0.0531250 0.567267
0.0546875 0.559105
0.0562500 0.551286
0.0578125 0.543787
0.0593750 0.536586
0.0609375 0.529665
0.0625000 0.523005
0.0640625 0.516592
0.0656250 0.510409
0.0671875 0.504444
0.0687500 0.498683
0.0718750 0.487730
0.0750000 0.477467
0.0781250 0.467824
0.0812500 0.458741
0.0843750 0.450167
0.0875000 0.442055
0.0906250 0.434368
0.0937500 0.427068
0.0968750 0.420124
0.100000 0.413509
0.103125 0.407196
0.106250 0.401165
0.109375 0.395394
0.112500 0.389865
0.115625 0.384563
0.118750 0.379471
0.121875 0.374577
0.125000 0.369868
0.128125 0.365334
0.131250 0.360963
0.134375 0.356747
0.137500 0.352676
0.143750 0.344934
0.150000 0.337678
0.156250 0.330860
0.162500 0.324437
0.168750 0.318375
0.175000 0.312640
0.181250 0.307206
0.187500 0.302047
0.193750 0.297141
0.200000 0.292469
0.209375 0.285856
0.218750 0.279669
0.228125 0.273866
0.237500 0.268410
0.246875 0.263268
0.256250 0.258411
0.265625 0.253813
0.275000 0.249453
0.284375 0.245311
0.293750 0.241368
0.303125 0.237611
0.312500 0.234023
0.321875 0.230594
0.331250 0.227311
0.340625 0.224165
0.350000 0.221147
0.359375 0.218247
0.368750 0.215459
0.378125 0.212776
0.387500 0.210192
0.396875 0.207701
0.406250 0.205299
0.425000 0.200734
0.443750 0.196455
0.462500 0.192438
0.500000 0.185107
0.531250 0.179602
0.562500 0.174550
0.593750 0.169903
0.625000 0.165610
0.687500 0.157920
0.750000 0.151215
0.812500 0.145300
0.875000 0.140047
0.937500 0.135328
1.00000 0.131045
1.06250 0.127147
1.12500 0.123579
1.18750 0.120297
1.25000 0.117265
1.37500 0.111836
1.50000 0.107103
1.62500 0.102928
1.75000 0.0992192
1.87500 0.0958885
2.00000 0.0928638
2.18750 0.0888266
2.37500 0.0852829
2.56250 0.0821373
2.75000 0.0793263
2.93750 0.0767899
3.12500 0.0744810
3.31250 0.0723721
3.50000 0.0704362
3.87500 0.0669976
4.25000 0.0640281
4.62500 0.0614303
5.00000 0.0591353
5.31250 0.0574135
5.62500 0.0558365
5.93750 0.0543870
6.25000 0.0530490
6.87500 0.0506554
7.50000 0.0485718
8.12500 0.0467373
8.75000 0.0451081
9.37500 0.0436479
10.0000 0.0423277
10.6250 0.0411285
11.2500 0.0400331
11.8750 0.0390278
12.5000 0.0381011
13.7500 0.0364471
15.0000 0.0350118
16.2500 0.0337523
17.5000 0.0326376
18.7500 0.0316421
20.0000 0.0307457
21.8750 0.0295579
23.7500 0.0285248
25.6250 0.0276173
27.5000 0.0268144
29.3750 0.0260987
31.2500 0.0254564
33.1250 0.0248778
35.0000 0.0243543
38.7500 0.0234462
42.5000 0.0226894
46.2500 0.0220536
50.0000 0.0215172
53.1250 0.0211340
56.2500 0.0208003
62.5000 0.0202600
68.7500 0.0198606
75.0000 0.0195773
81.2500 0.0193929
87.5000 0.0192954
93.7500 0.0192758
100.000 0.0193278
106.250 0.0194477
112.500 0.0196331
118.750 0.0198830
125.000 0.0201975
131.250 0.0205781
137.500 0.0210270
143.750 0.0215476
150.000 0.0221444
156.250 0.0228233
162.500 0.0235911
168.750 0.0244565
175.000 0.0254298
181.250 0.0265233
187.500 0.0277518
193.750 0.0291330
200.000 0.0306878
205.760 0.0323013
211.520 0.0341119
214.400 0.0350919
217.279 0.0361446
220.159 0.0372354
223.039 0.0384335
225.919 0.0396652
228.799 0.0410203
231.679 0.0424327
234.559 0.0439555
237.439 0.0455568
240.318 0.0472903
243.198 0.0491477
246.078 0.0511425
249.598 0.0537948
253.118 0.0566891
256.638 0.0598677
260.158 0.0633824
263.677 0.0672455
267.197 0.0715469
268.957 0.0738631
270.717 0.0763328
274.237 0.0816574
277.437 0.0870895
279.037 0.0900159
280.637 0.0931429
282.237 0.0964045
283.837 0.0998925
287.036 0.107477
288.636 0.111672
290.236 0.116091
291.836 0.120792
293.436 0.125873
295.036 0.131216
296.636 0.136996
298.236 0.143107
299.836 0.149737
301.596 0.157618
303.356 0.166174
305.116 0.175492
306.876 0.185668
308.636 0.196799
310.396 0.209025
312.155 0.222487
313.915 0.237350
315.675 0.253844
317.435 0.272184
319.195 0.292677
320.075 0.303840
320.955 0.315687
321.835 0.328247
322.715 0.341604
323.595 0.355842
324.475 0.370996
325.355 0.387169
326.235 0.404486
327.115 0.423010
327.995 0.442854
328.995 0.467234
329.995 0.493734
330.995 0.522378
331.995 0.553876
332.995 0.588422
333.994 0.626381
334.494 0.646786
334.994 0.668221
335.494 0.690733
335.994 0.714404
336.334 0.731237
336.674 0.748699
337.014 0.766811
337.354 0.785599
337.694 0.805095
337.864 0.815119
338.034 0.825335
338.204 0.835749
338.374 0.846365
338.544 0.857191
338.714 0.868223
338.934 0.882836
339.154 0.897827
339.374 0.913211
339.594 0.929000
339.814 0.945209
340.034 0.961853
340.254 0.978946
340.474 0.996506
340.694 1.01455
340.804 1.02376
340.914 1.03310
341.024 1.04256
341.134 1.05216
341.244 1.06190
341.354 1.07176
341.407 1.07652
341.459 1.08132
341.512 1.08614
341.564 1.09100
341.594 1.09380
341.664 1.10035
341.734 1.10697
341.797 1.11293
341.859 1.11894
341.922 1.12500
341.984 1.13111
342.109 1.14348
342.234 1.15605
342.334 1.16626
342.434 1.17661
342.534 1.18711
342.634 1.19774
342.834 1.21945
343.034 1.24176
343.234 1.26470
343.334 1.27641
343.434 1.28829
343.534 1.30033
343.634 1.31255
343.734 1.32494
343.834 1.33750
343.944 1.35154
344.054 1.36580
344.164 1.38030
344.274 1.39502
344.384 1.40999
344.494 1.42521
344.604 1.44067
344.714 1.45639
344.824 1.47237
344.934 1.48862
345.044 1.50515
345.154 1.52195
345.264 1.53904
345.374 1.55643
345.484 1.57411
345.594 1.59210
345.704 1.61040
345.814 1.62903
345.924 1.64798
346.034 1.66727
346.144 1.68691
346.254 1.70690
346.364 1.72725
346.474 1.74797
346.584 1.76907
346.694 1.79055
346.804 1.81244
346.914 1.83473
347.024 1.85744
347.134 1.88059
347.354 1.92818
347.574 1.97764
347.794 2.02905
348.014 2.08251
348.234 2.13814
348.454 2.19605
348.674 2.25637
348.894 2.31923
349.114 2.38475
349.334 2.45315
349.554 2.52456
349.774 2.59916
349.994 2.67715
350.214 2.75873
350.434 2.84414
350.654 2.93360
350.874 3.02740
351.094 3.12580
351.314 3.22912
351.534 3.33769
351.754 3.45187
351.974 3.57206
352.194 3.69869
352.414 3.83222
352.634 3.97310
352.854 4.12203
353.074 4.27955
353.294 4.44634
353.514 4.62314
353.734 4.81077
353.954 5.01013
354.174 5.22223
354.394 5.44808
354.614 5.68910
354.834 5.94658
355.054 6.22204
355.274 6.51721
355.494 6.83402
355.714 7.17464
355.934 7.54151
356.153 7.93722
356.373 8.36529
356.483 8.59250
356.593 8.82913
356.703 9.07572
356.813 9.33284
356.923 9.60110
357.033 9.88114
357.143 10.1737
357.253 10.4795
357.363 10.7993
357.473 11.1341
357.583 11.4847
357.693 11.8523
357.803 12.2378
357.913 12.6426
358.018 13.0481
358.123 13.4734
358.228 13.9200
358.333 14.3893
358.438 14.8827
358.543 15.4021
358.648 15.9492
358.753 16.5260
358.858 17.1348
358.963 17.7779
359.068 18.4579
359.173 19.1778
359.278 19.9407
359.383 20.7501
359.488 21.6100
359.593 22.5238
359.703 23.5460
359.813 24.6396
359.923 25.8116
360.033 27.0696
360.143 28.4223
360.253 29.8793
360.363 31.4516
360.473 33.1518
360.583 34.9939
360.693 36.9942
360.803 39.1713
360.913 41.5467
361.023 44.1449
361.133 46.9946
361.243 50.1292
361.298 51.8153
361.353 53.5844
361.408 55.4488
361.463 57.4120
361.518 59.4808
361.573 61.6630
361.628 63.9667
361.683 66.4011
361.738 68.9760
361.793 71.7021
361.848 74.5913
361.903 77.6564
361.958 80.9116
362.013 84.3722
362.068 88.0552
362.123 91.9792
362.178 96.1644
362.233 100.633
362.313 107.690
362.353 111.489
362.393 115.482
362.433 119.684
362.473 124.105
362.513 128.761
362.553 133.665
362.593 138.834
362.633 144.282
362.673 150.028
362.713 156.089
362.753 162.483
362.793 169.230
362.833 176.348
362.873 183.840
362.928 194.844
362.983 206.681
363.038 219.405
363.093 233.066
363.148 247.711
363.203 263.384
363.258 280.116
363.313 297.934
363.368 316.847
363.423 336.852
363.478 357.924
363.533 380.018
363.588 403.064
363.643 426.967
363.753 476.810
363.905 547.779
363.981 582.793
364.057 616.524
364.133 648.159
364.209 676.868
364.285 701.841
364.360 722.331
364.420 734.913
364.480 744.048
364.540 749.549
364.600 751.302
364.648 749.975
364.687 747.117
364.726 742.691
364.765 736.735
364.804 729.302
364.882 710.270
364.960 686.233
365.038 657.963
365.116 626.319
365.194 592.199
365.272 556.492
365.431 482.346
365.510 446.016
365.589 410.949
365.669 377.572
365.748 346.182
365.827 316.967
365.907 290.011
365.948 276.903
365.989 264.431
366.030 252.552
366.071 241.253
366.112 230.491
366.153 220.302
366.194 210.639
366.236 201.480
366.277 192.784
366.318 184.571
366.359 176.796
366.400 169.437
366.441 162.457
366.482 155.868
366.523 149.631
366.565 143.727
366.606 138.124
366.647 132.829
366.688 127.813
366.729 123.057
366.811 114.258
366.894 106.338
366.976 99.1761
367.058 92.7006
367.140 86.8172
367.223 81.4719
367.279 78.0975
367.335 74.9254
367.391 71.9402
367.447 69.1279
367.503 66.4757
367.559 63.9719
367.615 61.6059
367.671 59.3716
367.783 55.2437
367.896 51.5295
368.008 48.1759
368.120 45.1405
368.202 43.0902
368.284 41.1781
368.367 39.3880
368.449 37.7137
368.531 36.1417
368.613 34.6674
368.696 33.2796
368.778 31.9749
368.860 30.7437
368.942 29.5836
369.025 28.4864
369.107 27.4503
369.271 25.5394
369.436 23.8210
369.601 22.2692
369.765 20.8649
369.930 19.5891
370.094 18.4267
370.259 17.3641
370.423 16.3914
370.588 15.4981
370.752 14.6761
370.894 14.0175
371.036 13.4024
371.178 12.8268
371.320 12.2879
371.463 11.7817
371.605 11.3064
371.747 10.8588
371.889 10.4373
372.031 10.0396
372.173 9.66399
372.315 9.30903
372.457 8.97342
372.741 8.35411
373.025 7.79660
373.190 7.49870
373.354 7.21767
373.519 6.95211
373.683 6.70089
374.012 6.23755
374.341 5.82053
374.670 5.44374
374.999 5.10238
375.328 4.79205
375.657 4.50911
376.046 4.20572
376.435 3.93192
376.824 3.68389
377.213 3.45868
377.602 3.25359
377.990 3.06636
378.379 2.89468
378.768 2.73678
379.097 2.61288
379.426 2.49719
379.755 2.38898
380.084 2.28763
380.413 2.19253
380.742 2.10325
381.071 2.01929
381.400 1.94023
381.729 1.86569
382.058 1.79536
382.387 1.72892
382.716 1.66608
383.374 1.55022
384.032 1.44598
384.690 1.35186
385.348 1.26660
386.006 1.18913
386.664 1.11852
387.323 1.05398
387.981 0.994857
388.639 0.940547
389.297 0.890547
389.835 0.852529
390.373 0.816894
390.912 0.783504
391.450 0.752203
391.989 0.722667
392.527 0.694757
393.065 0.668410
393.604 0.643536
394.142 0.620011
394.680 0.597752
395.757 0.556670
396.834 0.519670
397.911 0.486233
398.569 0.467358
399.227 0.449560
399.885 0.432755
400.543 0.416877
401.859 0.387629
403.175 0.361356
404.491 0.337664
405.807 0.316232
407.123 0.296782
408.439 0.279080
409.995 0.260136
411.550 0.243069
413.105 0.227641
414.661 0.213652
416.216 0.200929
417.771 0.189426
419.327 0.178791
420.882 0.169051
422.198 0.161458
423.514 0.154362
424.830 0.147719
426.146 0.141539
427.462 0.135750
428.778 0.130303
430.095 0.125211
431.411 0.120433
432.727 0.115921
434.043 0.111684
436.675 0.103933
437.991 0.100377
439.307 0.0970318
441.939 0.0908595
444.571 0.0853494
447.203 0.0804050
449.835 0.0759723
452.468 0.0720092
455.100 0.0684616
457.732 0.0653174
460.364 0.0625571
462.996 0.0601790
465.150 0.0585441
467.303 0.0572242
468.380 0.0566975
469.457 0.0562854
470.534 0.0559736
471.610 0.0558097
472.567 0.0558235
473.525 0.0560096
474.482 0.0564107
475.439 0.0570861
476.396 0.0581084
476.875 0.0587884
477.353 0.0596151
477.832 0.0606136
478.310 0.0618150
478.789 0.0632617
479.267 0.0650081
479.626 0.0665569
479.985 0.0683501
480.344 0.0704333
480.703 0.0728665
481.032 0.0754735
481.361 0.0785199
481.690 0.0821043
482.019 0.0863513
482.348 0.0914252
482.513 0.0943383
482.677 0.0975462
482.842 0.101089
483.006 0.105014
483.171 0.109377
483.335 0.114247
483.530 0.120769
483.724 0.128278
483.918 0.136992
484.113 0.147188
484.210 0.152958
484.307 0.159238
484.405 0.166100
484.502 0.173620
484.599 0.181887
484.696 0.191009
484.793 0.201114
484.891 0.212357
485.010 0.228055
485.130 0.246216
485.190 0.256430
485.250 0.267498
485.309 0.279554
485.369 0.292741
485.429 0.307259
485.489 0.323274
485.549 0.341074
485.608 0.360993
485.668 0.383449
485.728 0.408969
485.788 0.438222
485.848 0.472053
485.889 0.498572
485.930 0.528111
485.971 0.561308
486.012 0.598573
486.053 0.640754
486.095 0.688413
486.136 0.742528
486.177 0.804105
486.218 0.874475
486.239 0.913305
486.259 0.954593
486.280 0.998928
486.300 1.04608
486.321 1.09671
486.341 1.15055
486.362 1.20836
486.382 1.27012
486.403 1.33609
486.424 1.40618
486.444 1.48135
486.465 1.56115
486.485 1.64665
486.506 1.73733
486.526 1.83438
486.547 1.93770
486.568 2.04761
486.588 2.16387
486.609 2.28795
486.629 2.41899
486.650 2.55860
486.670 2.70579
486.691 2.86233
486.711 3.02704
486.732 3.20187
486.752 3.38545
486.773 3.57989
486.794 3.78361
486.814 3.99890
486.835 4.22395
486.855 4.46122
486.876 4.70986
486.896 4.97009
486.917 5.24076
486.938 5.52465
486.958 5.81912
486.999 6.44574
487.040 7.12246
487.081 7.84540
487.123 8.61474
487.164 9.42816
487.212 10.4445
487.261 11.5086
487.310 12.6133
487.358 13.7475
487.523 17.6189
487.594 19.1952
487.629 19.9342
487.665 20.6318
487.706 21.3790
487.747 22.0518
487.788 22.6409
487.829 23.1381
487.870 23.5355
487.911 23.8286
487.956 24.0238
488.000 24.0879
488.008 24.0857
488.032 24.0532
488.056 23.9820
488.104 23.7254
488.138 23.4587
488.171 23.1238
488.203 22.7439
488.235 22.3078
488.241 22.2227
488.246 22.1360
488.267 21.8192
488.287 21.4828
488.328 20.7558
488.391 19.4873
488.455 18.0993
488.519 16.6300
488.583 15.1237
488.699 12.4028
488.757 11.0990
488.815 9.85827
488.847 9.20591
488.879 8.58077
488.911 7.98223
488.943 7.41137
488.975 6.86897
489.006 6.35549
489.038 5.87111
489.070 5.41574
489.092 5.12108
489.114 4.83967
489.136 4.57130
489.157 4.31688
489.179 4.07380
489.201 3.84399
489.223 3.62501
489.244 3.41852
489.266 3.22226
489.288 3.03765
489.310 2.86259
489.331 2.69831
489.353 2.54287
489.375 2.39730
489.397 2.25985
489.418 2.13138
489.434 2.04175
489.450 1.95628
489.466 1.87479
489.482 1.79762
489.498 1.72365
489.514 1.65364
489.530 1.58657
489.546 1.52315
489.578 1.40504
489.610 1.29825
489.642 1.20178
489.674 1.11467
489.706 1.03606
489.737 0.965127
489.769 0.901115
489.801 0.843332
489.833 0.791143
489.865 0.743968
489.897 0.701283
489.929 0.662610
489.956 0.632056
489.984 0.603933
490.012 0.578010
490.039 0.554165
490.094 0.511610
490.149 0.474973
490.205 0.443147
490.260 0.415392
490.315 0.390956
490.370 0.369283
490.425 0.349894
490.480 0.332496
490.535 0.316762
490.590 0.302453
490.645 0.289378
490.701 0.277377
490.811 0.256096
490.898 0.241415
490.985 0.228309
491.072 0.216528
491.159 0.205885
491.246 0.196219
491.333 0.187426
491.420 0.179390
491.507 0.172022
491.681 0.158995
491.855 0.147877
492.029 0.138295
492.203 0.129973
492.389 0.122238
492.574 0.115491
492.760 0.109562
492.946 0.104329
493.131 0.0996828
493.317 0.0955429
493.503 0.0918344
493.688 0.0885021
493.944 0.0844403
494.199 0.0808888
494.454 0.0777649
494.709 0.0750045
494.965 0.0725535
495.220 0.0703711
495.475 0.0684200
495.730 0.0666718
496.241 0.0636850
496.751 0.0612533
497.262 0.0592660
497.772 0.0576416
498.329 0.0562026
498.886 0.0550468
499.443 0.0541346
500.000 0.0534369
500.791 0.0527790
501.583 0.0524816
502.308 0.0525075
503.033 0.0528203
503.759 0.0534375
504.484 0.0543922
505.209 0.0557370
505.935 0.0575491
506.297 0.0586639
506.660 0.0599407
507.023 0.0614018
507.385 0.0630720
507.913 0.0659388
508.440 0.0694343
508.803 0.0722925
509.166 0.0756071
509.528 0.0794699
509.891 0.0839937
510.254 0.0893288
510.616 0.0956680
510.798 0.0992922
510.979 0.103268
511.160 0.107642
511.342 0.112470
511.556 0.118849
511.770 0.126081
511.985 0.134326
512.199 0.143786
512.413 0.154713
512.520 0.160828
512.628 0.167431
512.735 0.174591
512.842 0.182358
512.949 0.190820
513.056 0.200046
513.205 0.214294
513.353 0.230537
513.501 0.249182
513.576 0.259563
513.650 0.270737
513.724 0.282826
513.798 0.295920
513.872 0.310145
513.946 0.325623
514.021 0.342570
514.095 0.361176
514.169 0.381697
514.243 0.404416
514.334 0.435843
514.379 0.453339
514.424 0.472163
514.470 0.492573
514.515 0.514689
514.560 0.538798
514.606 0.565194
514.651 0.594291
514.696 0.626375
514.742 0.662082
514.787 0.701843
514.833 0.746531
514.878 0.796778
514.923 0.853652
514.968 0.918301
514.999 0.967709
515.030 1.02169
515.061 1.08094
515.092 1.14605
515.123 1.21767
515.154 1.29654
515.185 1.38342
515.216 1.47919
515.247 1.58478
515.278 1.70120
515.308 1.82954
515.339 1.97096
515.370 2.12673
515.401 2.29815
515.432 2.48665
515.463 2.69369
515.486 2.85849
515.508 3.03476
515.531 3.22315
515.554 3.42340
515.576 3.63796
515.599 3.86559
515.622 4.10901
515.644 4.36673
515.667 4.64171
515.690 4.93353
515.712 5.24284
515.735 5.56879
515.758 5.91488
515.780 6.27866
515.803 6.66389
515.826 7.06768
515.846 7.45565
515.867 7.85929
515.887 8.28068
515.908 8.72006
515.949 9.65339
515.990 10.6600
516.032 11.7423
516.073 12.8937
516.114 14.1141
516.155 15.3995
516.201 16.8848
516.246 18.4298
516.337 21.6612
516.427 24.9859
516.518 28.2530
516.580 30.3711
516.642 32.3310
516.687 33.6414
516.732 34.8172
516.778 35.8430
516.823 36.7023
516.867 37.3615
516.910 37.8407
516.955 38.1391
517.000 38.2372
517.049 38.1155
517.097 37.7587
517.137 37.2949
517.177 36.6851
517.216 35.9423
517.256 35.0719
517.295 34.0845
517.335 32.9949
517.374 31.8103
517.414 30.5501
517.493 27.8467
517.536 26.3007
517.693 20.5471
517.758 18.2673
517.823 16.0980
517.855 15.0617
517.887 14.0629
517.919 13.1042
517.952 12.1902
517.991 11.1280
518.031 10.1347
518.070 9.20597
518.109 8.34632
518.129 7.93917
518.149 7.55036
518.169 7.17754
518.188 6.82046
518.208 6.47714
518.228 6.15071
518.248 5.83906
518.267 5.54183
518.289 5.23202
518.310 4.93987
518.332 4.66335
518.353 4.40191
518.375 4.15387
518.396 3.92094
518.418 3.70138
518.439 3.49459
518.461 3.29914
518.483 3.11625
518.504 2.94444
518.526 2.78316
518.547 2.63185
518.569 2.49000
518.590 2.35710
518.612 2.23264
518.631 2.12507
518.651 2.02439
518.671 1.92970
518.690 1.84065
518.710 1.75652
518.730 1.67785
518.750 1.60391
518.769 1.53442
518.789 1.46879
518.809 1.40743
518.829 1.34976
518.848 1.29554
518.868 1.24431
518.888 1.19637
518.907 1.15128
518.927 1.10884
518.967 1.03106
519.006 0.962157
519.046 0.900674
519.085 0.845940
519.124 0.796822
519.164 0.752824
519.203 0.713075
519.243 0.677220
519.297 0.633516
519.350 0.594955
519.404 0.560700
519.458 0.530069
519.512 0.502506
519.566 0.477560
519.619 0.454860
519.673 0.434142
519.727 0.415077
519.781 0.397500
519.834 0.381236
519.888 0.366140
519.996 0.338977
520.103 0.315238
520.182 0.299627
520.261 0.285340
520.340 0.272221
520.419 0.260138
520.498 0.248980
520.577 0.238651
520.656 0.229066
520.735 0.220154
520.892 0.204099
521.050 0.190065
521.208 0.177716
521.366 0.166788
521.516 0.157480
521.667 0.149123
521.818 0.141584
521.968 0.134756
522.119 0.128548
522.270 0.122892
522.420 0.117721
522.571 0.112979
522.872 0.104602
523.173 0.0974623
523.474 0.0913247
523.776 0.0860099
524.120 0.0807635
524.464 0.0762446
524.780 0.0726255
525.095 0.0694237
525.411 0.0665757
525.727 0.0640313
526.042 0.0617499
526.358 0.0596969
526.673 0.0578431
526.989 0.0561634
527.620 0.0532448
528.251 0.0508065
528.883 0.0487494
529.514 0.0470024
530.231 0.0453230
530.948 0.0438951
531.665 0.0426702
532.383 0.0416178
533.100 0.0407094
533.817 0.0399222
534.534 0.0392377
535.252 0.0386410
536.686 0.0376665
538.121 0.0369403
539.555 0.0363738
540.990 0.0359557
542.367 0.0356718
543.744 0.0354832
545.121 0.0353763
546.498 0.0353445
549.023 0.0354612
551.547 0.0357775
554.072 0.0362810
556.597 0.0369683
559.122 0.0378380
561.646 0.0389023
564.171 0.0401733
566.696 0.0416687
569.220 0.0434188
571.745 0.0454507
574.270 0.0478077
575.532 0.0491242
576.794 0.0505437
578.057 0.0520690
579.319 0.0537142
580.582 0.0554929
581.844 0.0574086
583.106 0.0594780
584.369 0.0617229
585.631 0.0641510
586.893 0.0667808
588.270 0.0699117
589.648 0.0733198
591.025 0.0770941
592.402 0.0812550
593.779 0.0858528
595.156 0.0909485
596.533 0.0966137
597.910 0.102934
599.173 0.109390
600.435 0.116576
601.697 0.124605
602.329 0.128976
602.960 0.133610
603.591 0.138528
604.222 0.143755
604.853 0.149316
605.484 0.155239
606.116 0.161557
606.747 0.168306
607.378 0.175526
608.009 0.183258
608.812 0.193926
609.616 0.205623
610.419 0.218461
611.222 0.232595
612.026 0.248277
612.829 0.265721
613.632 0.285176
614.034 0.295756
614.436 0.306961
615.067 0.325964
615.698 0.346867
616.329 0.369932
616.960 0.395464
617.591 0.423838
617.907 0.439223
618.223 0.455487
618.538 0.472700
618.854 0.490936
619.169 0.510279
619.485 0.530813
620.001 0.567283
620.518 0.607739
621.034 0.652792
621.292 0.677262
621.551 0.703159
621.809 0.730592
622.067 0.759681
622.325 0.790561
622.583 0.823387
622.842 0.858339
623.100 0.895616
623.358 0.935439
623.616 0.978047
623.932 1.03429
624.247 1.09563
624.563 1.16269
624.879 1.23621
625.194 1.31703
625.510 1.40617
625.825 1.50482
626.141 1.61435
626.356 1.69613
626.571 1.78436
626.787 1.87973
627.002 1.98302
627.109 2.03795
627.217 2.09522
627.325 2.15498
627.432 2.21737
627.540 2.28255
627.647 2.35069
627.755 2.42198
627.862 2.49653
627.956 2.56411
628.049 2.63443
628.142 2.70781
628.235 2.78426
628.329 2.86413
628.422 2.94745
628.515 3.03462
628.608 3.12567
628.673 3.19124
628.738 3.25883
628.802 3.32873
628.867 3.40082
628.960 3.50939
629.053 3.62321
629.146 3.74275
629.193 3.80479
629.240 3.86840
629.318 3.97988
629.397 4.09632
629.476 4.21804
629.555 4.34537
629.634 4.47866
629.674 4.54775
629.713 4.61830
629.752 4.69072
629.792 4.76469
629.831 4.84066
629.871 4.91830
629.910 4.99806
629.950 5.07961
629.989 5.16342
630.029 5.24915
630.068 5.33730
630.107 5.42751
630.147 5.52031
630.186 5.61532
630.226 5.71311
630.265 5.81328
630.305 5.91643
630.344 6.02214
630.384 6.13106
630.423 6.24274
630.462 6.35758
630.502 6.47570
630.541 6.59754
630.581 6.72261
630.620 6.85171
630.660 6.98432
630.699 7.12127
630.739 7.26205
630.778 7.40753
630.817 7.55718
630.857 7.71194
630.896 7.87125
630.936 8.03612
630.975 8.20596
631.015 8.38188
631.054 8.56324
631.094 8.75124
631.133 8.94523
631.173 9.14649
631.212 9.35435
631.251 9.57021
631.291 9.79336
631.330 10.0253
631.370 10.2654
631.409 10.5152
631.449 10.7740
631.488 11.0436
631.528 11.3232
631.567 11.6149
631.606 11.9178
631.646 12.2342
631.685 12.5632
631.725 12.9073
631.764 13.2657
631.804 13.6412
631.843 14.0328
631.883 14.4438
631.922 14.8733
631.962 15.3247
632.001 15.7974
632.040 16.2952
632.080 16.8175
632.119 17.3688
632.159 17.9484
632.198 18.5616
632.238 19.2077
632.277 19.8930
632.317 20.6169
632.356 21.3844
632.395 22.1994
632.433 23.0272
632.471 23.9060
632.508 24.8400
632.546 25.8310
632.584 26.8894
632.621 28.0151
632.659 29.2200
632.697 30.5042
632.734 31.8816
632.772 33.3524
632.810 34.9327
632.847 36.6229
632.885 38.4417
632.923 40.3893
632.960 42.4872
632.998 44.7357
633.037 47.2791
633.077 50.0158
633.116 52.9752
633.156 56.1587
633.195 59.5994
633.235 63.2972
633.274 67.2890
633.313 71.5724
633.353 76.1877
633.392 81.1293
633.432 86.4402
633.471 92.1106
633.511 98.1853
633.550 104.649
633.590 111.546
633.629 118.855
633.669 126.621
633.708 134.811
633.747 143.470
633.787 152.553
633.826 162.102
633.866 172.059
633.905 182.435
633.945 193.212
633.984 204.394
634.023 215.895
634.102 239.827
634.181 264.659
634.260 289.956
634.382 328.767
634.443 347.447
634.504 365.225
634.554 378.830
634.603 391.507
634.653 403.104
634.702 413.459
634.771 425.609
634.840 434.842
634.908 440.921
634.977 443.689
635.000 443.861
635.023 443.655
635.060 442.512
635.098 440.377
635.135 437.266
635.173 433.216
635.210 428.237
635.247 422.375
635.322 408.206
635.376 396.212
635.429 382.912
635.483 368.473
635.536 353.093
635.639 321.663
635.742 288.896
635.826 261.974
635.910 235.667
635.994 210.453
636.036 198.385
636.078 186.728
636.129 173.070
636.180 160.144
636.232 147.930
636.283 136.491
636.334 125.787
636.386 115.853
636.437 106.634
636.488 98.1449
636.540 90.3234
636.591 83.1667
636.643 76.6106
636.694 70.6419
636.745 65.1978
636.797 60.2593
636.848 55.7679
636.899 51.7025
636.948 48.1680
636.997 44.9575
637.046 42.0346
637.095 39.3726
637.144 36.9467
637.193 34.7339
637.242 32.7133
637.291 30.8657
637.340 29.1705
637.389 27.6190
637.438 26.1933
637.487 24.8809
637.536 23.6705
637.585 22.5518
637.634 21.5159
637.683 20.5548
637.735 19.6192
637.786 18.7522
637.838 17.9440
637.889 17.1922
637.940 16.4886
637.992 15.8314
638.043 15.2142
638.094 14.6358
638.146 14.0908
638.197 13.5784
638.248 13.0940
638.300 12.6374
638.402 11.7957
638.505 11.0397
638.570 10.5968
638.636 10.1816
638.701 9.79072
638.766 9.42328
638.832 9.07635
638.897 8.74934
639.028 8.14728
639.158 7.60696
639.289 7.11996
639.420 6.67932
639.551 6.27920
639.653 5.98998
639.756 5.72066
639.859 5.46942
639.961 5.23463
640.064 5.01488
640.167 4.80889
640.269 4.61552
640.372 4.43373
640.475 4.26262
640.578 4.10136
640.680 3.94919
640.783 3.80544
640.988 3.54079
641.194 3.30311
641.399 3.08883
641.605 2.89495
641.810 2.71895
642.015 2.55868
642.221 2.41231
642.426 2.27828
642.632 2.15524
642.837 2.04207
643.024 1.94675
643.210 1.85806
643.397 1.77535
643.584 1.69808
643.770 1.62578
643.957 1.55802
644.144 1.49443
644.331 1.43467
644.517 1.37842
644.704 1.32547
644.891 1.27553
645.077 1.22839
645.264 1.18383
645.451 1.14168
645.824 1.06392
646.030 1.02452
646.235 0.987293
646.646 0.918735
647.057 0.857150
647.467 0.801636
647.878 0.751397
648.289 0.705796
648.700 0.664278
649.110 0.626379
649.633 0.582722
650.156 0.543550
650.679 0.508283
651.202 0.476436
651.724 0.447578
652.247 0.421312
652.770 0.397321
653.293 0.375362
653.704 0.359396
654.114 0.344459
654.525 0.330466
654.936 0.317343
655.347 0.305014
655.758 0.293419
656.168 0.282502
656.579 0.272214
656.990 0.262503
657.401 0.253330
658.222 0.236450
659.044 0.221301
659.865 0.207661
660.687 0.195337
661.508 0.184173
662.330 0.174031
663.151 0.164796
663.973 0.156367
664.794 0.148659
665.616 0.141602
666.438 0.135148
667.259 0.129217
668.081 0.123739
668.902 0.118688
669.724 0.114034
670.545 0.109742
671.367 0.105785
672.188 0.102136
673.010 0.0987741
673.832 0.0956777
674.653 0.0928312
675.475 0.0902191
676.296 0.0878289
677.118 0.0856493
677.939 0.0836720
678.761 0.0818890
679.582 0.0802946
681.076 0.0778669
682.570 0.0760400
683.317 0.0753533
684.063 0.0748216
684.810 0.0744490
685.557 0.0742415
686.603 0.0742440
687.648 0.0746140
688.694 0.0753812
689.740 0.0765869
690.785 0.0783294
691.308 0.0794243
691.831 0.0806836
692.354 0.0821219
692.876 0.0837564
693.399 0.0856068
693.922 0.0876959
694.594 0.0907755
695.266 0.0943602
695.939 0.0985314
696.611 0.103388
696.947 0.106110
697.283 0.109050
697.619 0.112226
697.955 0.115662
698.291 0.119385
698.627 0.123426
698.963 0.127822
699.299 0.132607
699.710 0.139050
700.121 0.146229
700.532 0.154251
700.942 0.163243
701.353 0.173363
701.764 0.184796
701.969 0.191075
702.175 0.197771
702.380 0.204921
702.586 0.212562
702.903 0.225460
703.220 0.239840
703.538 0.255935
703.697 0.264711
703.855 0.274025
704.014 0.283928
704.173 0.294457
704.331 0.305674
704.490 0.317641
704.649 0.330427
704.808 0.344110
704.966 0.358774
705.125 0.374518
705.330 0.396674
705.536 0.421090
705.741 0.448087
705.946 0.478025
706.152 0.511387
706.255 0.529511
706.357 0.548700
706.460 0.569040
706.563 0.590624
706.665 0.613559
706.768 0.637937
706.945 0.683932
707.034 0.708959
707.123 0.735485
707.211 0.763637
707.300 0.793553
707.389 0.825388
707.478 0.859316
707.566 0.895532
707.655 0.934252
707.744 0.975723
707.832 1.02023
707.921 1.06807
708.010 1.11963
708.098 1.17532
708.187 1.23554
708.290 1.31184
708.392 1.39610
708.495 1.48960
708.598 1.59390
708.649 1.65075
708.701 1.71097
708.752 1.77512
708.803 1.84334
708.855 1.91633
708.906 1.99432
708.957 2.07804
709.009 2.16815
709.060 2.26567
709.111 2.37113
709.163 2.48607
709.214 2.61131
709.265 2.74888
709.317 2.90004
709.368 3.06748
709.419 3.25304
709.471 3.46039
709.522 3.69213
709.548 3.81877
709.573 3.95319
709.599 4.09599
709.625 4.24722
709.650 4.40876
709.676 4.58080
709.702 4.76415
709.727 4.95890
709.753 5.16749
709.779 5.39019
709.805 5.62807
709.830 5.88123
709.861 6.20452
709.891 6.55326
709.921 6.93202
709.952 7.34073
709.982 7.78469
710.012 8.26371
710.043 8.78387
710.073 9.34482
710.103 9.95348
710.134 10.6092
710.164 11.3199
710.194 12.0846
710.225 12.9120
710.255 13.8007
710.285 14.7573
710.316 15.7858
710.341 16.7176
710.367 17.7067
710.393 18.7557
710.418 19.8625
710.444 21.0384
710.470 22.2816
710.495 23.5946
710.521 24.9741
710.547 26.4332
710.572 27.9688
710.598 29.5829
710.624 31.2705
710.649 33.0465
710.675 34.8986
710.701 36.8424
710.726 38.8637
710.746 40.4942
710.766 42.1681
710.806 45.6796
710.845 49.3977
710.885 53.3194
710.925 57.4399
710.965 61.7514
711.004 66.2441
711.044 70.8931
711.072 74.2854
711.100 77.7356
711.156 84.8171
711.203 90.8557
711.254 97.6163
711.305 104.407
711.408 117.854
711.492 128.355
711.543 134.398
711.595 140.043
711.646 145.225
711.697 149.870
711.735 152.879
711.772 155.537
711.823 158.597
711.873 160.867
711.923 162.403
711.962 163.072
712.000 163.289
712.029 163.155
712.086 162.125
712.144 160.100
712.193 157.640
712.241 154.530
712.290 150.839
712.338 146.606
712.395 140.971
712.452 134.748
712.501 129.090
712.549 123.164
712.597 117.025
712.646 110.740
712.742 97.9699
712.839 85.3518
712.914 75.9451
712.988 67.0209
713.026 62.7606
713.063 58.6691
713.100 54.7438
713.138 50.9914
713.186 46.3881
713.234 42.0990
713.283 38.1157
713.307 36.2342
713.331 34.4356
713.355 32.7040
713.379 31.0527
713.403 29.4667
713.427 27.9577
713.452 26.5117
713.476 25.1390
713.500 23.8264
713.524 22.5830
713.548 21.3964
713.572 20.2700
713.597 19.2017
713.621 18.1935
713.645 17.2351
713.669 16.3320
713.693 15.4749
713.717 14.6687
713.742 13.9045
713.766 13.1867
713.790 12.5073
713.814 11.8700
713.838 11.2674
713.862 10.7026
713.886 10.1692
713.911 9.66976
713.935 9.19839
713.959 8.75556
713.983 8.33964
714.007 7.95065
714.031 7.58387
714.056 7.24093
714.080 6.91762
714.104 6.61533
714.128 6.33031
714.152 6.06378
714.176 5.81240
714.200 5.57722
714.225 5.35530
714.249 5.14754
714.273 4.95134
714.297 4.76750
714.321 4.59372
714.345 4.43006
714.370 4.27582
714.394 4.13096
714.442 3.86456
714.490 3.62654
714.539 3.41317
714.587 3.22123
714.635 3.04792
714.684 2.89084
714.732 2.74765
714.780 2.61716
714.829 2.49755
714.877 2.38751
714.925 2.28573
714.974 2.19167
715.022 2.10428
715.070 2.02286
715.119 1.94665
715.167 1.87542
715.215 1.80855
715.263 1.74565
715.360 1.63038
715.457 1.52726
715.531 1.45468
715.606 1.38758
715.681 1.32537
715.755 1.26761
715.830 1.21374
715.905 1.16351
715.979 1.11647
716.054 1.07244
716.129 1.03106
716.203 0.992157
716.278 0.955532
716.353 0.921047
716.427 0.888446
716.502 0.857672
716.651 0.800915
716.748 0.767247
716.845 0.735787
716.941 0.706282
717.038 0.678626
717.135 0.652610
717.231 0.628156
717.328 0.605113
717.424 0.583374
717.618 0.543404
717.811 0.507605
718.004 0.475375
718.197 0.446278
718.312 0.430381
718.426 0.415364
718.654 0.387713
718.883 0.362878
719.111 0.340485
719.339 0.320219
719.568 0.301816
719.796 0.285049
720.024 0.269732
720.218 0.257769
720.411 0.246636
720.604 0.236257
720.798 0.226570
720.991 0.217505
721.184 0.209019
721.377 0.201056
721.571 0.193579
721.764 0.186544
721.957 0.179922
722.344 0.167780
722.730 0.156936
723.117 0.147207
723.503 0.138443
723.890 0.130523
724.276 0.123337
724.663 0.116797
725.049 0.110827
725.436 0.105363
725.822 0.100350
726.209 0.0957384
726.595 0.0914822
726.982 0.0875442
727.368 0.0838909
727.755 0.0804958
728.141 0.0773355
728.528 0.0743890
729.301 0.0690625
730.074 0.0643851
730.847 0.0602536
731.620 0.0565830
732.393 0.0533050
733.377 0.0496131
734.361 0.0463739
735.344 0.0435129
736.328 0.0409742
737.312 0.0387128
738.296 0.0366759
739.280 0.0348336
740.264 0.0331643
741.810 0.0308375
743.356 0.0288137
744.902 0.0270383
746.448 0.0254696
747.994 0.0240737
749.540 0.0228241
751.086 0.0216990
752.632 0.0206809
754.038 0.0198363
755.443 0.0190657
758.254 0.0176822
761.065 0.0164852
763.876 0.0154413
766.687 0.0145235
769.498 0.0137090
772.309 0.0129801
775.120 0.0123244
777.369 0.0118456
779.618 0.0114020
784.115 0.0106061
788.613 0.00991298
793.110 0.00930265
797.608 0.00875969
802.106 0.00827435
806.603 0.00783781
811.101 0.00744300
817.285 0.00695947
823.469 0.00652994
829.653 0.00614743
835.838 0.00580625
842.022 0.00549717
848.206 0.00521842
854.390 0.00496491
860.574 0.00473266
872.381 0.00434445
884.187 0.00400942
895.993 0.00372203
907.799 0.00346962
919.605 0.00324775
931.412 0.00305366
943.218 0.00288025
955.024 0.00272493
966.268 0.00259326
977.512 0.00247408
988.756 0.00236570
1000.00 0.00226716
1018.74 0.00212281
1037.48 0.00199911
1056.22 0.00189293
1074.96 0.00180180
1093.70 0.00172372
1112.44 0.00165730
1131.18 0.00160140
1149.92 0.00155517
1173.34 0.00151075
1196.77 0.00147953
1220.19 0.00146127
1243.61 0.00145663
1274.07 0.00147576
1289.29 0.00149481
1304.52 0.00152406
1319.74 0.00156293
1334.97 0.00161415
1350.20 0.00167977
1365.42 0.00176222
1382.99 0.00188600
1400.56 0.00204952
1409.34 0.00214919
1418.13 0.00226569
1426.91 0.00240133
1435.69 0.00256026
1448.58 0.00284714
1455.02 0.00302037
1461.46 0.00321936
1467.90 0.00344716
1474.34 0.00371221
1480.79 0.00402146
1487.23 0.00438281
1493.67 0.00481297
1500.11 0.00532962
1506.55 0.00595636
1513.00 0.00672688
1516.22 0.00718033
1519.44 0.00768892
1522.66 0.00826216
1525.88 0.00891143
1529.10 0.00965083
1532.32 0.0104983
1535.54 0.0114755
1538.76 0.0126065
1541.98 0.0139309
1545.20 0.0154985
1548.42 0.0173682
1550.04 0.0184417
1551.65 0.0196233
1553.26 0.0209299
1554.87 0.0223778
1556.48 0.0239903
1558.09 0.0257910
1559.70 0.0278133
1561.31 0.0300920
1562.92 0.0326742
1564.53 0.0356164
1565.55 0.0377085
1566.58 0.0399953
1567.60 0.0424983
1568.63 0.0452478
1569.65 0.0482852
1570.68 0.0516515
1571.70 0.0553924
1572.73 0.0595603
1573.53 0.0631881
1574.34 0.0671596
1575.14 0.0715251
1575.95 0.0763386
1576.75 0.0816639
1577.56 0.0875764
1578.36 0.0941659
1579.17 0.101540
1579.86 0.108648
1580.56 0.116529
1581.26 0.125325
1581.95 0.135153
1582.65 0.146211
1583.34 0.158675
1583.69 0.165528
1584.04 0.172818
1584.38 0.180631
1584.73 0.188970
1585.13 0.199413
1585.54 0.210760
1585.94 0.223118
1586.34 0.236575
1586.75 0.251342
1587.15 0.267511
1587.55 0.285358
1587.95 0.305024
1588.36 0.326879
1588.76 0.351203
1589.16 0.378384
1589.36 0.393152
1589.56 0.408813
1589.77 0.425527
1589.97 0.443211
1590.17 0.462037
1590.37 0.482104
1590.57 0.503638
1590.77 0.526551
1590.97 0.551088
1591.17 0.577409
1591.43 0.613952
1591.69 0.653981
1591.94 0.698142
1592.20 0.747036
1592.46 0.801611
1592.58 0.831109
1592.71 0.862310
1592.84 0.895351
1592.97 0.930383
1593.10 0.967576
1593.22 1.00712
1593.43 1.07480
1593.63 1.14942
1593.83 1.23240
1593.93 1.27767
1594.03 1.32511
1594.13 1.37589
1594.23 1.42978
1594.33 1.48707
1594.43 1.54746
1594.53 1.61248
1594.63 1.68125
1594.73 1.75559
1594.83 1.83454
1594.96 1.94520
1595.09 2.06616
1595.22 2.20000
1595.28 2.27241
1595.35 2.34888
1595.41 2.42978
1595.47 2.51549
1595.54 2.60646
1595.60 2.70317
1595.67 2.80620
1595.73 2.91617
1595.79 3.03378
1595.86 3.15983
1595.91 3.27558
1595.97 3.39887
1596.02 3.53040
1596.08 3.67096
1596.13 3.82142
1596.19 3.98274
1596.24 4.15598
1596.30 4.33881
1596.35 4.53926
1596.38 4.65517
1596.41 4.77601
1596.44 4.90207
1596.47 5.02912
1596.50 5.16623
1596.53 5.30940
1596.56 5.45895
1596.59 5.60990
1596.62 5.78412
1596.65 5.96681
1596.69 6.15843
1596.72 6.35948
1596.75 6.57045
1596.78 6.79189
1596.81 7.02436
1596.85 7.26843
1596.88 7.52472
1596.91 7.79385
1596.94 8.07648
1596.97 8.37329
1597.01 8.68499
1597.04 9.01230
1597.07 9.35598
1597.10 9.71681
1597.13 10.0232
1597.15 10.3293
1597.18 10.6472
1597.20 10.9773
1597.23 11.3339
1597.25 11.6901
1597.28 12.0598
1597.30 12.4433
1597.33 12.8574
1597.36 13.2706
1597.38 13.6990
1597.41 14.1431
1597.43 14.6034
1597.46 15.0803
1597.48 15.5742
1597.51 16.0856
1597.53 16.6365
1597.56 17.1851
1597.61 18.3393
1597.66 19.5727
1597.71 20.8885
1597.76 22.3192
1597.81 23.8117
1597.86 25.3961
1597.91 27.0750
1597.96 28.8870
1598.01 30.7629
1598.06 32.7793
1598.11 34.8578
1598.16 37.0818
1598.21 39.3638
1598.26 41.7452
1598.31 44.2243
1598.36 46.8510
1598.41 49.5187
1598.46 52.2738
1598.51 55.1112
1598.56 58.0838
1598.61 61.0679
1598.71 67.2114
1598.81 73.5892
1598.91 80.0513
1599.12 92.7467
1599.22 98.8126
1599.32 104.506
1599.42 109.657
1599.52 114.209
1599.62 118.230
1599.73 121.371
1599.79 122.797
1599.85 123.862
1599.92 124.554
1599.98 124.868
1600.00 124.887
1600.04 124.795
1600.11 124.276
1600.18 123.323
1600.25 121.920
1600.32 120.122
1600.38 118.074
1600.44 115.739
1600.51 113.067
1600.57 110.165
1600.64 106.970
1600.70 103.610
1600.83 96.3047
1600.95 88.4937
1601.08 80.4180
1601.31 65.7096
1601.43 58.6712
1601.54 51.9950
1601.61 48.4972
1601.67 45.1452
1601.74 41.9469
1601.80 38.9543
1601.86 36.0760
1601.93 33.3626
1601.99 30.8140
1602.05 28.4648
1602.09 27.1232
1602.13 25.8374
1602.17 24.6065
1602.20 23.4596
1602.24 22.3336
1602.28 21.2866
1602.32 20.2607
1602.35 19.3085
1602.39 18.3772
1602.43 17.5143
1602.47 16.6716
1602.50 15.8921
1602.54 15.1320
1602.58 14.4298
1602.62 13.7460
1602.65 13.1151
1602.72 12.1007
1602.78 11.1775
1602.85 10.3383
1602.91 9.58758
1602.97 8.89492
1603.04 8.26664
1603.10 7.69688
1603.16 7.18787
1603.23 6.71845
1603.29 6.29241
1603.36 5.90545
1603.42 5.55889
1603.48 5.23819
1603.55 4.95023
1603.61 4.68297
1603.67 4.44221
1603.74 4.21796
1603.80 4.01207
1603.87 3.82265
1603.93 3.65063
1603.99 3.48905
1604.06 3.33940
1604.12 3.20050
1604.18 3.07324
1604.25 2.95265
1604.31 2.83999
1604.38 2.73452
1604.44 2.63709
1604.50 2.54402
1604.57 2.45772
1604.69 2.29803
1604.80 2.17325
1604.91 2.05931
1605.02 1.95486
1605.13 1.85878
1605.24 1.77012
1605.35 1.68806
1605.46 1.61192
1605.57 1.54109
1605.68 1.47507
1605.79 1.41341
1605.90 1.35569
1606.01 1.30159
1606.12 1.25078
1606.23 1.20300
1606.34 1.15800
1606.45 1.11556
1606.58 1.06913
1606.71 1.02596
1606.84 0.985103
1606.96 0.946997
1607.09 0.910839
1607.22 0.877021
1607.34 0.845093
1607.47 0.814915
1607.73 0.759100
1607.98 0.709119
1608.24 0.663832
1608.49 0.622972
1608.65 0.598739
1608.81 0.576052
1608.98 0.554649
1609.14 0.534436
1609.46 0.497235
1609.79 0.463838
1610.11 0.433648
1610.44 0.406424
1610.76 0.381708
1611.08 0.359198
1611.34 0.342863
1611.59 0.327625
1611.85 0.313388
1612.10 0.300116
1612.36 0.287628
1612.61 0.275909
1612.87 0.264897
1613.12 0.254577
1613.63 0.235609
1614.14 0.218730
1614.65 0.203616
1615.16 0.190026
1615.67 0.177740
1616.18 0.166637
1616.69 0.156531
1617.20 0.147341
1617.71 0.138928
1618.22 0.131236
1618.73 0.124158
1619.23 0.117656
1620.11 0.107578
1620.99 0.0987552
1621.87 0.0909790
1622.75 0.0840888
1623.63 0.0779584
1624.51 0.0724815
1625.39 0.0675686
1626.27 0.0631496
1627.29 0.0585555
1628.31 0.0544520
1629.33 0.0507715
1630.35 0.0474579
1631.37 0.0444640
1632.39 0.0417499
1633.41 0.0392819
1634.42 0.0370332
1635.72 0.0344436
1637.02 0.0321229
1638.32 0.0300354
1639.61 0.0281545
1640.91 0.0264529
1642.21 0.0249034
1644.80 0.0221959
1646.84 0.0203777
1648.87 0.0187836
1650.91 0.0173785
1652.95 0.0161342
1654.99 0.0150262
1657.02 0.0140363
1659.06 0.0131475
1661.10 0.0123474
1665.18 0.0109681
1669.25 0.00982804
1673.33 0.00887529
1677.40 0.00807311
1681.48 0.00739063
1685.55 0.00680358
1689.63 0.00629680
1693.70 0.00585738
1697.78 0.00547335
1701.85 0.00513694
1710.00 0.00457877
1719.64 0.00407099
1729.27 0.00368407
1738.90 0.00338916
1748.53 0.00315994
1761.87 0.00293285
1775.21 0.00278625
1788.55 0.00270511
1801.88 0.00268284
1816.70 0.00272660
1831.52 0.00284656
1838.93 0.00294140
1846.34 0.00306335
1853.75 0.00321624
1861.16 0.00340654
1869.31 0.00367313
1877.46 0.00401481
1885.62 0.00445661
1893.77 0.00503631
1899.69 0.00557704
1905.62 0.00625466
1911.55 0.00711418
1914.51 0.00763621
1917.48 0.00823449
1921.55 0.00921082
1925.63 0.0104147
1929.70 0.0119229
1931.74 0.0128245
1933.78 0.0138474
1936.74 0.0156018
1939.71 0.0177568
1941.19 0.0190203
1942.67 0.0204373
1944.15 0.0220373
1945.63 0.0238497
1947.67 0.0267618
1949.71 0.0302830
1950.73 0.0323268
1951.75 0.0345967
1952.77 0.0371274
1953.79 0.0399576
1954.67 0.0426859
1955.55 0.0457160
1956.43 0.0490943
1957.31 0.0528762
1958.19 0.0571274
1959.07 0.0619270
1959.95 0.0673753
1960.82 0.0735938
1961.84 0.0819849
1962.35 0.0867506
1962.86 0.0919447
1963.37 0.0976432
1963.88 0.103888
1964.39 0.110767
1964.90 0.118367
1965.41 0.126813
1965.92 0.136197
1966.43 0.146707
1966.94 0.158484
1967.45 0.171796
1967.96 0.186862
1968.47 0.204077
1968.98 0.223791
1969.30 0.237941
1969.62 0.253454
1969.95 0.270569
1970.27 0.289520
1970.60 0.310584
1970.92 0.334098
1971.24 0.360463
1971.57 0.390172
1971.82 0.416295
1972.08 0.445219
1972.33 0.477369
1972.59 0.513112
1972.84 0.553353
1973.10 0.598729
1973.23 0.623734
1973.35 0.650198
1973.48 0.678467
1973.61 0.708722
1973.83 0.766444
1973.94 0.798161
1974.05 0.832030
1974.16 0.868271
1974.27 0.907136
1974.38 0.948917
1974.49 0.993954
1974.60 1.04265
1974.71 1.09547
1974.82 1.15298
1974.93 1.21585
1975.04 1.28490
1975.15 1.36112
1975.26 1.44570
1975.37 1.54012
1975.43 1.60029
1975.49 1.66481
1975.56 1.73414
1975.62 1.80762
1975.69 1.88815
1975.75 1.97528
1975.81 2.06976
1975.88 2.17076
1975.94 2.28241
1976.00 2.40422
1976.07 2.53736
1976.13 2.68075
1976.20 2.84036
1976.26 3.01275
1976.32 3.20511
1976.39 3.41329
1976.44 3.60437
1976.49 3.80734
1976.54 4.02697
1976.59 4.26465
1976.65 4.52187
1976.70 4.80021
1976.75 5.10135
1976.80 5.42703
1976.83 5.60643
1976.86 5.78615
1976.88 5.97297
1976.91 6.16712
1976.93 6.36886
1976.96 6.57846
1976.99 6.79617
1977.01 7.02226
1977.04 7.25701
1977.06 7.50068
1977.09 7.75356
1977.12 8.01592
1977.14 8.28806
1977.17 8.57025
1977.19 8.86278
1977.22 9.16595
1977.26 9.61629
1977.29 10.0765
1977.33 10.5592
1977.36 11.0651
1977.40 11.5951
1977.44 12.1498
1977.47 12.7300
1977.51 13.3365
1977.56 14.2234
1977.61 15.1447
1977.66 16.1393
1977.71 17.1691
1977.76 18.3912
1977.82 19.6850
1977.87 21.0513
1977.93 22.4912
1977.98 24.0047
1978.04 25.5919
1978.09 27.2522
1978.15 28.9521
1978.22 31.4587
1978.30 34.0574
1978.37 36.8088
1978.45 39.6297
1978.51 42.1102
1978.57 44.6082
1978.70 49.7712
1978.83 55.0225
1978.96 60.2501
1979.08 65.3686
1979.21 70.1650
1979.30 73.4213
1979.40 76.3727
1979.46 78.2422
1979.52 79.9185
1979.59 81.4411
1979.65 82.7504
1979.73 84.1100
1979.81 85.1395
1979.90 85.9326
1980.00 86.1924
1980.04 86.1537
1980.09 85.9356
1980.15 85.5351
1980.21 84.9412
1980.27 84.1785
1980.37 82.3065
1980.48 79.9081
1980.58 76.9923
1980.69 73.6440
1980.80 69.9350
1980.90 65.9802
1981.00 62.1443
1981.09 58.2354
1981.29 50.3022
1981.39 45.9742
1981.50 41.7583
1981.60 37.7037
1981.71 33.8505
1981.77 31.6687
1981.83 29.6067
1981.90 27.6016
1981.96 25.7198
1982.02 23.9025
1982.08 22.2083
1982.15 20.5825
1982.21 19.0762
1982.26 17.8613
1982.32 16.7122
1982.37 15.6274
1982.42 14.6054
1982.47 13.6443
1982.53 12.7420
1982.58 11.8965
1982.63 11.1054
1982.69 10.3664
1982.74 9.67707
1982.79 9.03501
1982.85 8.43775
1982.90 7.88285
1982.95 7.36790
1983.00 6.89052
1983.06 6.44840
1983.11 6.03928
1983.16 5.66098
1983.22 5.31141
1983.27 4.98855
1983.32 4.69050
1983.38 4.41542
1983.43 4.16159
1983.48 3.92738
1983.53 3.71127
1983.59 3.51182
1983.64 3.32768
1983.69 3.15761
1983.75 3.00045
1983.80 2.85512
1983.85 2.72062
1983.90 2.59830
1983.95 2.49740
1984.00 2.40284
1984.04 2.31413
1984.09 2.23259
1984.13 2.15419
1984.18 2.08044
1984.27 1.94687
1984.36 1.82649
1984.45 1.71986
1984.55 1.62287
1984.64 1.53618
1984.73 1.45661
1984.82 1.38485
1984.91 1.31843
1985.00 1.25805
1985.09 1.20174
1985.19 1.15018
1985.28 1.10179
1985.37 1.05722
1985.47 1.00900
1985.58 0.964318
1985.69 0.922808
1985.79 0.884139
1985.90 0.848032
1986.00 0.814244
1986.11 0.782562
1986.22 0.753076
1986.43 0.698658
1986.64 0.650197
1986.85 0.606813
1987.06 0.567965
1987.33 0.523644
1987.60 0.484608
1987.87 0.449780
1988.14 0.418783
1988.41 0.390863
1988.68 0.365796
1988.95 0.343035
1989.22 0.322450
1989.43 0.307529
1989.64 0.293639
1990.07 0.268586
1990.49 0.246656
1990.91 0.227389
1991.34 0.210291
1991.76 0.195113
1992.18 0.181516
1992.61 0.169342
1993.03 0.158346
1993.46 0.148404
1993.88 0.139385
1994.30 0.131196
1994.73 0.123703
1995.15 0.116861
1995.57 0.110568
1996.00 0.104794
1996.50 0.0985348
1997.00 0.0928431
1997.50 0.0876306
1998.00 0.0828621
1999.00 0.0744324
2000.00 0.0672484
2000.67 0.0630132
2001.34 0.0591825
2002.01 0.0557017
2002.68 0.0525290
2004.02 0.0469679
2005.36 0.0422823
2006.64 0.0384601
2007.92 0.0351543
2009.20 0.0322743
2010.48 0.0297524
2011.76 0.0275305
2013.04 0.0255661
2014.32 0.0238196
2015.60 0.0222602
2016.94 0.0207982
2018.28 0.0194900
2020.96 0.0172529
2023.64 0.0154216
2026.32 0.0139053
2028.63 0.0127983
2030.95 0.0118448
2033.26 0.0110131
2035.58 0.0102868
2040.21 0.00908820
2044.84 0.00815125
2050.20 0.00730706
2055.56 0.00665532
2060.92 0.00614868
2066.28 0.00575546
2074.08 0.00533694
2081.88 0.00505898
2089.68 0.00489297
2097.48 0.00482078
2108.20 0.00485776
2118.92 0.00504745
2124.28 0.00520236
2129.64 0.00540246
2135.00 0.00565228
2140.36 0.00595816
2147.67 0.00648464
2154.99 0.00716712
2158.64 0.00757802
2162.30 0.00805067
2165.95 0.00859212
2169.61 0.00921462
2174.97 0.0103073
2180.33 0.0116731
2183.01 0.0124863
2185.69 0.0134055
2188.37 0.0144496
2191.05 0.0156419
2194.71 0.0175604
2198.36 0.0199013
2200.19 0.0212673
2202.02 0.0227984
2203.84 0.0245174
2205.67 0.0264537
2208.35 0.0297723
2209.69 0.0316860
2211.03 0.0338016
2212.37 0.0361502
2213.71 0.0387633
2215.05 0.0416844
2216.39 0.0449638
2217.49 0.0479576
2218.59 0.0512724
2219.68 0.0549558
2220.78 0.0590601
2221.88 0.0636582
2222.97 0.0688198
2224.07 0.0746580
2225.17 0.0812928
2225.84 0.0858146
2226.51 0.0907263
2227.18 0.0960815
2227.85 0.101935
2228.52 0.108352
2229.19 0.115405
2229.86 0.123184
2230.53 0.131790
2231.20 0.141362
2231.87 0.152017
2232.54 0.163945
2233.21 0.177356
2233.88 0.192509
2234.55 0.209719
2234.88 0.219214
2235.22 0.229377
2235.55 0.240271
2235.89 0.251969
2236.28 0.266947
2236.68 0.283320
2237.08 0.301270
2237.47 0.321013
2237.87 0.342799
2238.26 0.366923
2238.66 0.393737
2239.06 0.423660
2239.39 0.451773
2239.73 0.482838
2240.06 0.517289
2240.40 0.555645
2240.73 0.598533
2240.90 0.621978
2241.07 0.646709
2241.23 0.673145
2241.40 0.701104
2241.57 0.731074
2241.74 0.762865
2242.01 0.820067
2242.15 0.851072
2242.29 0.883928
2242.42 0.918792
2242.56 0.955837
2242.70 0.995258
2242.83 1.03727
2242.97 1.08246
2243.11 1.13045
2243.25 1.18187
2243.38 1.23707
2243.52 1.29646
2243.66 1.36052
2243.79 1.42978
2243.93 1.50487
2244.05 1.57541
2244.17 1.65082
2244.29 1.73230
2244.40 1.82062
2244.52 1.91663
2244.64 2.02139
2244.70 2.07742
2244.76 2.13611
2244.82 2.19764
2244.88 2.26223
2244.97 2.37810
2245.02 2.44051
2245.07 2.50441
2245.12 2.57260
2245.17 2.64254
2245.22 2.71576
2245.27 2.79249
2245.34 2.90693
2245.41 3.02767
2245.48 3.15902
2245.54 3.29803
2245.61 3.44973
2245.68 3.61076
2245.72 3.69846
2245.75 3.78699
2245.78 3.87897
2245.82 3.97456
2245.86 4.09789
2245.90 4.22732
2245.94 4.36322
2245.99 4.50597
2246.03 4.65595
2246.07 4.81359
2246.11 4.97932
2246.15 5.15360
2246.20 5.33690
2246.24 5.52974
2246.28 5.73263
2246.32 5.94611
2246.36 6.17077
2246.41 6.40717
2246.45 6.65594
2246.49 6.91132
2246.53 7.18641
2246.57 7.47581
2246.62 7.78022
2246.66 8.10034
2246.70 8.43690
2246.74 8.79066
2246.78 9.16236
2246.82 9.54326
2246.87 9.95271
2246.91 10.3824
2246.95 10.8332
2246.99 11.2943
2247.03 11.7891
2247.08 12.3073
2247.12 12.8497
2247.16 13.4032
2247.20 13.9957
2247.24 14.6146
2247.28 15.2608
2247.33 15.9347
2247.37 16.6372
2247.41 17.3687
2247.45 18.1299
2247.49 18.9213
2247.54 19.7433
2247.58 20.5963
2247.62 21.4806
2247.66 22.3744
2247.70 23.3212
2247.75 24.2999
2247.83 26.3273
2247.91 28.5042
2248.00 30.8037
2248.08 33.2209
2248.16 35.7488
2248.25 38.3782
2248.33 41.0976
2248.42 43.8936
2248.50 46.7158
2248.67 52.5362
2248.83 58.3245
2249.00 63.9260
2249.17 69.1368
2249.25 71.5444
2249.34 73.7750
2249.42 75.8040
2249.50 77.5886
2249.59 79.2191
2249.68 80.5598
2249.77 81.5932
2249.86 82.3057
2249.93 82.6463
2250.00 82.7563
2250.06 82.6785
2250.15 82.2367
2250.25 81.4110
2250.34 80.2143
2250.44 78.6649
2250.57 76.0394
2250.70 72.8792
2250.82 69.3563
2250.95 65.5198
2251.07 61.5975
2251.19 57.5188
2251.43 49.2217
2251.55 44.8985
2251.68 40.7301
2251.80 36.7348
2251.93 32.9545
2252.00 30.9718
2252.07 29.0951
2252.13 27.2722
2252.20 25.5579
2252.27 23.9030
2252.34 22.3560
2252.41 20.8711
2252.48 19.4905
2252.54 18.2836
2252.60 17.1447
2252.67 16.0721
2252.73 15.0792
2252.79 14.1320
2252.85 13.2446
2252.92 12.4145
2252.98 11.6511
2253.04 10.9271
2253.10 10.2526
2253.17 9.62482
2253.23 9.05017
2253.29 8.50746
2253.35 8.01143
2253.42 7.54362
2253.48 7.11653
2253.54 6.71409
2253.61 6.34121
2253.67 5.99577
2253.73 5.68062
2253.79 5.38373
2253.86 5.10857
2253.92 4.85345
2253.98 4.62042
2254.04 4.40050
2254.11 4.19623
2254.17 4.00633
2254.23 3.83234
2254.30 3.66757
2254.36 3.51630
2254.42 3.37274
2254.48 3.24063
2254.57 3.05979
2254.67 2.89691
2254.76 2.74812
2254.85 2.61179
2254.94 2.48523
2255.03 2.36994
2255.12 2.26343
2255.21 2.16476
2255.30 2.07217
2255.40 1.98693
2255.49 1.90740
2255.58 1.83303
2255.67 1.76333
2255.76 1.69789
2255.85 1.63634
2255.94 1.57834
2256.07 1.50336
2256.19 1.43450
2256.32 1.37006
2256.44 1.31058
2256.57 1.25467
2256.69 1.20285
2256.82 1.15394
2256.95 1.10844
2257.07 1.06536
2257.20 1.02515
2257.32 0.986960
2257.45 0.951220
2257.57 0.917189
2257.70 0.885259
2257.95 0.826346
2258.20 0.773077
2258.45 0.724924
2258.70 0.681238
2258.95 0.641623
2259.20 0.605298
2259.45 0.572035
2259.70 0.541491
2259.95 0.513481
2260.21 0.487525
2260.46 0.463520
2260.71 0.441270
2260.96 0.420606
2261.21 0.401379
2261.46 0.383455
2261.71 0.366720
2261.96 0.351128
2262.21 0.336465
2262.46 0.322710
2262.96 0.297688
2263.47 0.275454
2263.97 0.255682
2264.47 0.237953
2264.97 0.222053
2265.47 0.207683
2265.97 0.194702
2266.48 0.182891
2266.98 0.172153
2267.48 0.162324
2267.98 0.153340
2268.71 0.141542
2269.44 0.131074
2270.17 0.121741
2270.90 0.113393
2271.63 0.105872
2272.36 0.0990881
2273.09 0.0929331
2273.82 0.0873477
2274.82 0.0804539
2275.82 0.0743617
2276.83 0.0689410
2277.83 0.0641057
2278.83 0.0597660
2279.84 0.0558639
2280.84 0.0523390
2281.84 0.0491441
2282.85 0.0462365
2283.85 0.0435879
2285.86 0.0389456
2287.86 0.0350258
2289.87 0.0316914
2291.88 0.0288251
2293.88 0.0263401
2295.89 0.0241738
2297.89 0.0222762
2299.90 0.0206031
2301.91 0.0191219
2303.91 0.0178038
2305.92 0.0166256
2309.93 0.0146154
2313.95 0.0129734
2317.96 0.0116152
2321.97 0.0104794
2325.44 0.00964233
2328.90 0.00891661
2332.37 0.00827782
2335.83 0.00771588
2342.76 0.00677708
2349.69 0.00602988
2357.72 0.00534185
2365.75 0.00479543
2373.77 0.00435527
2381.80 0.00399656
2389.46 0.00371511
2397.12 0.00347792
2412.44 0.00311045
2427.76 0.00284638
2443.08 0.00265546
2462.05 0.00249335
2481.02 0.00239267
2499.99 0.00233684
2518.96 0.00231702
2535.01 0.00232679
2551.07 0.00235618
2567.12 0.00240520
2583.17 0.00247473
2599.22 0.00256288
2615.27 0.00267324
2631.32 0.00280649
2647.37 0.00296400
2672.18 0.00326832
2684.58 0.00345252
2696.99 0.00366206
2709.39 0.00390085
2721.79 0.00417042
2734.20 0.00448231
2746.60 0.00484179
2762.65 0.00539379
2770.68 0.00571370
2778.70 0.00606952
2786.73 0.00646437
2794.75 0.00690694
2802.78 0.00740375
2810.80 0.00796243
2817.00 0.00844558
2823.21 0.00897972
2829.41 0.00957230
2835.61 0.0102321
2841.81 0.0109698
2848.01 0.0117911
2854.22 0.0127239
2860.42 0.0137817
2868.44 0.0153757
2872.46 0.0162862
2876.47 0.0172856
2880.48 0.0183860
2884.49 0.0196020
2888.51 0.0209499
2892.52 0.0224495
2896.35 0.0240456
2900.18 0.0258264
2904.01 0.0278231
2907.84 0.0300716
2911.67 0.0326171
2915.50 0.0355129
2919.33 0.0388289
2923.16 0.0426302
2925.17 0.0448648
2927.18 0.0472866
2929.18 0.0499175
2931.19 0.0527791
2933.20 0.0559029
2935.20 0.0593182
2937.21 0.0630645
2939.21 0.0671864
2941.22 0.0717382
2943.23 0.0767768
2945.23 0.0823803
2947.24 0.0886300
2949.25 0.0956369
2951.25 0.103521
2953.26 0.112438
2954.26 0.117343
2955.26 0.122580
2956.63 0.130322
2958.00 0.138825
2959.37 0.148193
2960.74 0.158536
2962.11 0.170010
2962.79 0.176231
2963.47 0.182810
2964.16 0.189772
2964.84 0.197144
2965.53 0.204957
2966.21 0.213248
2966.73 0.219958
2967.26 0.226978
2967.78 0.234356
2968.31 0.242088
2968.83 0.250228
2969.36 0.258774
2969.62 0.263214
2969.88 0.267771
2970.14 0.272447
2970.40 0.277249
2970.64 0.281761
2970.88 0.286366
2971.12 0.291085
2971.36 0.295923
2971.57 0.300192
2971.72 0.303316
2971.86 0.306490
2972.09 0.311479
2972.32 0.316592
2972.55 0.321833
2972.77 0.327182
2972.98 0.332154
2973.19 0.337215
2973.60 0.347694
2974.01 0.358698
2974.42 0.370207
2974.83 0.382312
2975.24 0.394990
2975.65 0.408344
2975.85 0.415260
2976.06 0.422355
2976.38 0.433799
2976.70 0.445678
2977.02 0.458054
2977.34 0.470955
2977.65 0.484412
2977.97 0.498457
2978.29 0.513124
2978.61 0.528452
2978.86 0.541004
2979.11 0.554010
2979.36 0.567492
2979.62 0.581475
2979.87 0.595984
2980.12 0.611044
2980.37 0.626684
2980.62 0.642869
2980.87 0.659760
2981.12 0.677327
2981.37 0.695608
2981.62 0.714641
2981.87 0.734468
2982.12 0.755134
2982.38 0.776687
2982.63 0.799087
2982.88 0.822568
2983.13 0.847102
2983.38 0.872752
2983.63 0.899478
2983.88 0.927567
2984.13 0.956995
2984.38 0.987849
2984.63 1.02009
2984.88 1.05408
2985.13 1.08979
2985.38 1.12735
2985.63 1.16673
2985.89 1.20838
2986.14 1.25230
2986.39 1.29867
2986.64 1.34745
2986.89 1.39925
2987.14 1.45409
2987.39 1.51221
2987.64 1.57389
2987.89 1.63942
2988.14 1.70912
2988.39 1.78335
2988.64 1.86219
2988.90 1.94670
2989.15 2.03708
2989.40 2.13388
2989.65 2.23728
2989.90 2.34881
2990.15 2.46883
2990.40 2.59823
2990.65 2.73740
2990.90 2.88858
2991.15 3.05248
2991.28 3.14001
2991.40 3.23056
2991.53 3.32580
2991.65 3.42443
2991.78 3.52829
2991.91 3.63597
2992.03 3.74948
2992.16 3.86731
2992.28 3.99165
2992.41 4.12087
2992.53 4.25628
2992.66 4.39827
2992.78 4.54846
2992.91 4.70491
2993.03 4.87059
2993.16 5.04336
2993.29 5.22654
2993.41 5.41777
2993.54 5.61908
2993.66 5.83109
2993.79 6.05633
2993.91 6.29193
2994.04 6.54038
2994.16 6.80249
2994.29 7.08136
2994.41 7.37343
2994.54 7.68177
2994.66 8.00731
2994.77 8.30596
2994.88 8.61614
2994.99 8.94423
2995.10 9.28487
2995.21 9.64500
2995.31 10.0187
2995.42 10.4097
2995.53 10.8187
2995.64 11.2502
2995.75 11.6968
2995.85 12.1630
2995.96 12.6489
2996.07 13.1598
2996.18 13.6864
2996.29 14.2334
2996.40 14.8008
2996.52 15.4883
2996.65 16.1969
2996.77 16.9370
2996.90 17.6957
2997.15 19.2858
2997.40 20.9423
2997.61 22.3854
2997.82 23.8437
2998.25 26.7120
2998.46 28.0682
2998.67 29.3336
2998.88 30.4783
2999.09 31.4695
2999.32 32.3409
2999.55 32.9834
2999.77 33.3761
3000.00 33.5057
3000.15 33.4438
3000.28 33.3063
3000.40 33.0922
3000.52 32.8035
3000.64 32.4430
3000.77 32.0143
3000.89 31.5214
3001.14 30.3668
3001.38 29.0109
3001.63 27.5031
3001.87 25.8900
3002.12 24.2234
3002.57 21.1059
3002.80 19.5873
3003.03 18.1319
3003.26 16.7416
3003.48 15.4387
3003.71 14.2178
3003.94 13.0923
3004.17 12.0345
3004.40 11.0677
3004.63 10.1876
3004.75 9.77840
3004.87 9.38884
3004.98 9.01811
3005.10 8.66542
3005.33 8.01100
3005.56 7.41931
3005.79 6.88646
3006.03 6.40214
3006.26 5.96348
3006.49 5.56563
3006.72 5.20573
3006.95 4.87674
3007.18 4.57681
3007.42 4.30284
3007.65 4.05312
3007.83 3.87293
3008.01 3.70515
3008.19 3.54784
3008.36 3.40016
3008.54 3.26137
3008.72 3.13080
3008.90 3.00781
3009.08 2.89184
3009.26 2.78179
3009.44 2.67839
3009.62 2.58061
3009.80 2.48804
3010.16 2.31712
3010.51 2.16310
3010.75 2.07130
3010.98 1.98519
3011.21 1.90432
3011.44 1.82826
3011.67 1.75665
3011.91 1.68916
3012.14 1.62546
3012.37 1.56555
3012.60 1.50865
3012.83 1.45478
3013.30 1.35555
3013.76 1.26593
3014.22 1.18508
3014.69 1.11158
3015.15 1.04472
3015.61 0.983712
3016.08 0.928022
3016.54 0.876837
3017.00 0.829884
3017.47 0.786528
3017.93 0.746578
3018.40 0.709525
3018.86 0.675166
3019.32 0.643240
3019.79 0.613585
3020.25 0.585873
3020.71 0.560050
3021.18 0.535847
3021.64 0.513229
3022.10 0.491973
3022.57 0.472056
3023.03 0.453289
3023.49 0.435660
3023.96 0.419009
3024.42 0.403332
3024.89 0.388491
3025.35 0.374488
3026.28 0.348618
3027.20 0.325377
3028.13 0.304376
3029.06 0.285377
3029.99 0.268097
3030.91 0.252368
3031.84 0.237994
3032.77 0.224826
3033.48 0.215384
3034.20 0.206546
3034.92 0.198241
3035.63 0.190450
3037.07 0.176198
3038.50 0.163494
3039.93 0.152121
3041.37 0.141911
3042.80 0.132712
3044.23 0.124403
3046.09 0.114773
3047.94 0.106250
3049.79 0.0986613
3051.65 0.0918842
3053.50 0.0858008
3055.36 0.0803260
3057.21 0.0753765
3059.07 0.0708925
3061.09 0.0664626
3063.11 0.0624567
3065.14 0.0588228
3067.16 0.0555170
3069.18 0.0525016
3071.20 0.0497468
3073.23 0.0472312
3075.25 0.0449146
3078.96 0.0411192
3082.67 0.0378372
3086.38 0.0349832
3090.09 0.0324891
3093.79 0.0302995
3097.50 0.0283699
3101.21 0.0266635
3104.92 0.0251504
3108.63 0.0238050
3112.34 0.0226065
3116.05 0.0215375
3119.76 0.0205832
3123.47 0.0197310
3127.17 0.0189703
3134.59 0.0176886
3140.32 0.0168969
3146.06 0.0162374
3151.79 0.0157053
3157.52 0.0152888
3163.25 0.0149787
3168.98 0.0147689
3174.71 0.0146552
3180.45 0.0146357
3186.52 0.0147180
3192.58 0.0149088
3198.65 0.0152129
3204.72 0.0156382
3210.79 0.0161961
3216.86 0.0169016
3222.93 0.0177709
3229.00 0.0188451
3232.71 0.0196139
3236.42 0.0204799
3240.13 0.0214551
3243.83 0.0225535
3247.54 0.0237924
3251.25 0.0251922
3254.96 0.0267770
3258.67 0.0285760
3261.70 0.0302331
3264.74 0.0320810
3267.77 0.0341492
3270.81 0.0364701
3273.84 0.0390857
3276.88 0.0420371
3279.91 0.0453838
3282.94 0.0492179
3284.80 0.0518359
3286.65 0.0546912
3288.51 0.0578127
3290.36 0.0612319
3292.22 0.0649916
3294.07 0.0691332
3295.93 0.0737146
3297.78 0.0787941
3299.64 0.0844522
3301.49 0.0907723
3303.35 0.0978691
3305.20 0.105866
3307.05 0.114930
3308.91 0.125248
3309.84 0.130954
3310.76 0.137069
3311.69 0.143636
3312.62 0.150698
3313.88 0.161230
3315.15 0.172920
3316.41 0.185956
3317.67 0.200520
3318.94 0.216905
3319.57 0.225875
3320.20 0.235427
3320.84 0.245611
3321.47 0.256481
3322.10 0.268098
3322.73 0.280531
3323.17 0.289775
3323.62 0.299468
3324.06 0.309685
3324.50 0.320417
3324.94 0.331749
3325.39 0.343672
3325.83 0.356286
3326.27 0.369584
3326.59 0.379590
3326.90 0.389979
3327.22 0.400804
3327.38 0.406388
3327.54 0.412091
3327.62 0.415172
3327.92 0.426274
3328.21 0.437832
3328.51 0.449870
3328.80 0.462415
3329.12 0.476495
3329.43 0.491184
3329.75 0.506566
3330.07 0.522687
3330.38 0.539594
3330.70 0.557339
3331.01 0.575979
3331.17 0.585654
3331.33 0.595576
3331.56 0.610610
3331.79 0.626225
3332.03 0.642449
3332.26 0.659242
3332.49 0.676783
3332.72 0.695038
3332.95 0.714045
3333.18 0.733760
3333.42 0.754397
3333.65 0.775923
3333.88 0.798387
3334.11 0.821845
3334.34 0.846358
3334.58 0.871988
3334.81 0.898805
3335.04 0.926760
3335.27 0.956175
3335.50 0.987018
3335.73 1.01938
3335.97 1.05322
3336.20 1.08894
3336.43 1.12634
3336.66 1.16589
3336.89 1.20737
3337.12 1.25132
3337.36 1.29771
3337.59 1.34673
3337.82 1.39860
3338.05 1.45352
3338.28 1.51175
3338.52 1.57355
3338.75 1.63923
3338.98 1.70911
3339.21 1.78356
3339.44 1.86299
3339.67 1.94745
3339.91 2.03819
3340.14 2.13542
3340.37 2.23975
3340.60 2.35140
3340.83 2.47211
3340.95 2.53596
3341.07 2.60230
3341.18 2.67126
3341.30 2.74298
3341.41 2.81760
3341.53 2.89460
3341.64 2.97548
3341.76 3.05975
3341.88 3.14760
3341.99 3.23924
3342.11 3.33488
3342.22 3.43474
3342.34 3.53906
3342.46 3.64714
3342.57 3.76113
3342.69 3.88041
3342.80 4.00528
3342.92 4.13608
3343.04 4.27315
3343.15 4.41688
3343.27 4.56765
3343.38 4.72451
3343.50 4.89061
3343.61 5.06509
3343.73 5.24847
3343.85 5.44127
3343.96 5.64404
3344.08 5.85736
3344.19 6.08184
3344.31 6.31603
3344.43 6.56466
3344.54 6.82642
3344.66 7.10201
3344.77 7.39215
3344.89 7.69756
3345.01 8.01897
3345.12 8.35711
3345.24 8.71271
3345.35 9.08646
3345.47 9.47904
3345.59 9.89106
3345.70 10.3231
3345.82 10.7757
3345.93 11.2492
3346.05 11.7440
3346.16 12.2557
3346.29 12.8454
3346.42 13.4558
3346.54 14.0961
3346.67 14.7557
3346.80 15.4439
3346.92 16.1485
3347.18 17.6162
3347.35 18.6548
3347.52 19.7149
3347.86 21.8626
3348.21 23.9728
3348.55 25.9369
3348.73 26.8845
3348.91 27.7407
3349.09 28.4953
3349.28 29.1341
3349.46 29.6471
3349.64 30.0184
3349.82 30.2435
3350.00 30.3179
3350.15 30.2675
3350.29 30.1200
3350.41 29.9296
3350.53 29.6778
3350.64 29.3668
3350.76 28.9993
3351.00 28.1076
3351.23 27.0367
3351.47 25.8108
3351.70 24.4759
3351.94 23.0568
3352.18 21.6000
3352.68 18.4839
3352.93 16.9841
3353.18 15.5541
3353.43 14.2092
3353.68 12.9591
3353.81 12.3690
3353.93 11.8086
3354.06 11.2690
3354.18 10.7584
3354.31 10.2570
3354.44 9.78443
3354.57 9.33609
3354.70 8.91117
3354.82 8.50881
3354.95 8.12807
3355.08 7.76801
3355.21 7.42766
3355.34 7.10602
3355.46 6.80213
3355.59 6.51502
3355.72 6.24377
3355.85 5.98745
3355.98 5.74520
3356.10 5.51619
3356.23 5.29960
3356.36 5.09469
3356.49 4.90073
3356.62 4.71706
3356.74 4.54302
3357.00 4.22150
3357.26 3.93183
3357.51 3.67020
3357.77 3.43328
3358.02 3.21820
3358.28 3.02244
3358.47 2.89038
3358.65 2.76736
3358.84 2.65196
3359.03 2.54358
3359.21 2.44114
3359.40 2.34524
3359.58 2.25486
3359.77 2.16958
3359.96 2.08861
3360.14 2.01248
3360.52 1.87216
3360.89 1.74566
3361.26 1.63183
3361.52 1.55956
3361.77 1.49223
3362.03 1.42917
3362.29 1.37002
3362.54 1.31446
3362.80 1.26221
3363.05 1.21302
3363.31 1.16665
3363.57 1.12272
3363.82 1.08139
3364.33 1.00530
3364.85 0.936972
3365.36 0.875390
3365.87 0.819591
3366.38 0.769065
3366.90 0.723080
3367.41 0.681108
3367.92 0.642698
3368.43 0.607460
3368.94 0.575056
3369.46 0.545190
3369.92 0.519996
3370.39 0.496516
3370.85 0.474595
3371.32 0.454138
3371.78 0.434935
3372.25 0.416960
3372.72 0.400041
3373.18 0.384164
3373.65 0.369183
3374.11 0.355063
3374.58 0.341739
3375.04 0.329181
3375.97 0.306038
3376.91 0.285261
3377.93 0.264751
3378.95 0.246402
3379.98 0.229889
3381.00 0.215003
3382.03 0.201512
3383.05 0.189270
3384.08 0.178116
3385.10 0.167925
3386.40 0.156174
3387.71 0.145622
3389.01 0.136114
3390.32 0.127530
3391.62 0.119742
3392.92 0.112647
3394.23 0.106186
3394.88 0.103279
3395.53 0.100984
3396.09 0.100411
3396.65 0.103166
3396.93 0.106918
3397.21 0.113107
3397.49 0.122556
3397.77 0.136160
3398.05 0.154882
3398.32 0.179355
3398.60 0.210149
3398.88 0.247395
3399.16 0.290902
3399.44 0.339476
3399.72 0.391879
3400.00 0.446344
3400.00 0.805848
4000.00 0.757864
5000.00 0.699749
6000.00 0.656817
7200.00 0.616392
8000.00 0.593737
10000.0 0.546682
12000.0 0.508741
14000.0 0.476916
16000.0 0.449598
18000.0 0.425789
20000.0 0.404807
22000.0 0.386157
24000.0 0.369466
26000.0 0.354440
28000.0 0.340846
30000.0 0.328495
32000.0 0.317227
34000.0 0.306914
36000.0 0.297444
38000.0 0.288725
40000.0 0.280676
42000.0 0.273227
44000.0 0.266318
46000.0 0.259897
48000.0 0.253919
50000.0 0.248341
60000.0 0.225317
72000.0 0.205457
85000.0 0.190030
100000 0.177159
113346 0.169233
125000 0.162312
150000 0.152175
170000 0.145973
200000 0.138596
250000 0.128961
300000 0.121771
350000 0.115832
364348 0.114497
400000 0.111182
500000 0.104055
582539 0.100054
586061 0.0998832
591830 0.0996036
600000 0.0992075
653765 0.0974660
664088 0.0971316
684126 0.0964825
693639 0.0961744
700000 0.0959683
723190 0.0954927
734828 0.0952540
740799 0.0951315
799496 0.0939275
800000 0.0939172
802740 0.0938748
802740 0.0939412
802836 0.0939307
802836 0.0939307
825606 0.0914367
839977 0.0898627
890578 0.0843204
919926 0.0811059
955347 0.0772263
990000 0.0734308
990000 0.0734308
1.00000E+06 0.0723355
1.01404E+06 0.0723285
1.05351E+06 0.0723089
1.06566E+06 0.0723029
1.08185E+06 0.0722949
1.11525E+06 0.0722783
1.13245E+06 0.0722697
1.47169E+06 0.0721013
1.47169E+06 0.0721013
1.50000E+06 0.0720872
1.52005E+06 0.0717631
1.52006E+06 0.0717630
1.78917E+06 0.0674121
1.78917E+06 0.0674121
2.00000E+06 0.0640036
2.08143E+06 0.0630852
2.08143E+06 0.0630851
2.09994E+06 0.0628764
2.09994E+06 0.0628763
2.32585E+06 0.0603284
2.32585E+06 0.0603283
2.41873E+06 0.0592807
2.47774E+06 0.0586152
2.50000E+06 0.0583641
3.00000E+06 0.0460353
3.50000E+06 0.0369412
4.00000E+06 0.0301307
5.00000E+06 0.0198221
5.23822E+06 0.0181260
6.00000E+06 0.0127020
6.47491E+06 0.0106525
7.00000E+06 0.00838633
8.00000E+06 0.00538323
8.96650E+06 0.00336367
9.00000E+06 0.00329367
1.00000E+07 0.00201581
1.10000E+07 0.00132006
1.20000E+07 0.000930810
1.20613E+07 0.000917525
1.20613E+07 0.000917523
1.30000E+07 0.000713950
1.40000E+07 0.000575580
1.50000E+07 0.000479624
1.60000E+07 0.000415149
1.70000E+07 0.000346439
1.80000E+07 0.000283560
1.90000E+07 0.000226697
2.00000E+07 0.000180196
