Ru-98(n,tot) ENDFB-8.0
Energy(eV) XS(b)
1.00000E-05 432.503
1.03125E-05 425.911
1.06250E-05 419.612
1.09375E-05 413.585
1.12500E-05 407.811
1.15625E-05 402.273
1.18750E-05 396.955
1.21875E-05 391.843
1.25000E-05 386.924
1.28125E-05 382.187
1.31250E-05 377.620
1.34375E-05 373.213
1.37500E-05 368.957
1.43750E-05 360.866
1.50000E-05 353.287
1.56250E-05 346.168
1.62500E-05 339.463
1.68750E-05 333.135
1.75000E-05 327.150
1.81250E-05 321.477
1.87500E-05 316.090
1.93750E-05 310.967
2.00000E-05 306.085
2.09375E-05 299.178
2.18750E-05 292.720
2.28125E-05 286.665
2.37500E-05 280.972
2.46875E-05 275.607
2.56250E-05 270.540
2.65625E-05 265.744
2.75000E-05 261.195
2.84375E-05 256.874
2.93750E-05 252.762
3.03125E-05 248.842
3.12500E-05 245.100
3.21875E-05 241.523
3.31250E-05 238.100
3.40625E-05 234.819
3.50000E-05 231.671
3.59375E-05 228.647
3.68750E-05 225.739
3.78125E-05 222.941
3.87500E-05 220.244
3.96875E-05 217.644
4.06250E-05 215.135
4.25000E-05 210.369
4.43750E-05 205.909
4.62500E-05 201.723
4.81250E-05 197.785
5.00000E-05 194.071
5.15625E-05 191.132
5.31250E-05 188.325
5.46875E-05 185.639
5.62500E-05 183.066
5.78125E-05 180.598
5.93750E-05 178.229
6.09375E-05 175.952
6.25000E-05 173.761
6.40625E-05 171.650
6.56250E-05 169.616
6.71875E-05 167.654
6.87500E-05 165.759
7.18750E-05 162.156
7.50000E-05 158.782
7.81250E-05 155.613
8.12500E-05 152.630
8.43750E-05 149.814
8.75000E-05 147.152
9.06250E-05 144.629
9.37500E-05 142.233
9.68750E-05 139.955
0.000100000 137.785
0.000103125 135.715
0.000106250 133.737
0.000109375 131.845
0.000112500 130.033
0.000115625 128.296
0.000118750 126.627
0.000121875 125.024
0.000125000 123.481
0.000128125 121.996
0.000131250 120.564
0.000134375 119.182
0.000137500 117.849
0.000143750 115.314
0.000150000 112.940
0.000156250 110.711
0.000162500 108.612
0.000168750 106.632
0.000175000 104.760
0.000181250 102.986
0.000187500 101.302
0.000193750 99.7013
0.000200000 98.1764
0.000209375 96.0194
0.000218750 94.0036
0.000228125 92.1143
0.000237500 90.3390
0.000246875 88.6665
0.000256250 87.0875
0.000265625 85.5936
0.000275000 84.1773
0.000284375 82.8323
0.000293750 81.5528
0.000303125 80.3337
0.000312500 79.1704
0.000321875 78.0587
0.000331250 76.9950
0.000340625 75.9760
0.000350000 74.9986
0.000359375 74.0600
0.000368750 73.1578
0.000378125 72.2898
0.000387500 71.4537
0.000396875 70.6477
0.000406250 69.8701
0.000425000 68.3936
0.000443750 67.0126
0.000462500 65.7174
0.000481250 64.4994
0.000500000 63.3513
0.000515625 62.4433
0.000531250 61.5761
0.000546875 60.7467
0.000562500 59.9525
0.000578125 59.1910
0.000593750 58.4602
0.000609375 57.7579
0.000625000 57.0825
0.000640625 56.4321
0.000656250 55.8054
0.000671875 55.2009
0.000687500 54.6174
0.000718750 53.5085
0.000750000 52.4705
0.000781250 51.4960
0.000812500 50.5789
0.000843750 49.7138
0.000875000 48.8959
0.000906250 48.1211
0.000937500 47.3858
0.000968750 46.6868
0.00100000 46.0211
0.00103125 45.3862
0.00106250 44.7798
0.00109375 44.1999
0.00112500 43.6445
0.00115625 43.1120
0.00118750 42.6009
0.00121875 42.1097
0.00125000 41.6373
0.00128125 41.1824
0.00131250 40.7440
0.00134375 40.3212
0.00137500 39.9129
0.00143750 39.1371
0.00150000 38.4107
0.00156250 37.7288
0.00162500 37.0869
0.00168750 36.4813
0.00175000 35.9087
0.00181250 35.3662
0.00187500 34.8513
0.00193750 34.3617
0.00200000 33.8954
0.00209375 33.2358
0.00218750 32.6194
0.00228125 32.0417
0.00237500 31.4988
0.00246875 30.9873
0.00256250 30.5044
0.00265625 30.0474
0.00275000 29.6141
0.00284375 29.2026
0.00293750 28.8111
0.00303125 28.4380
0.00312500 28.0819
0.00321875 27.7416
0.00331250 27.4159
0.00340625 27.1039
0.00350000 26.8045
0.00359375 26.5170
0.00368750 26.2406
0.00378125 25.9746
0.00387500 25.7184
0.00396875 25.4714
0.00406250 25.2330
0.00425000 24.7802
0.00443750 24.3566
0.00462500 23.9591
0.00481250 23.5853
0.00500000 23.2327
0.00515625 22.9538
0.00531250 22.6874
0.00546875 22.4325
0.00562500 22.1884
0.00578125 21.9543
0.00593750 21.7295
0.00609375 21.5134
0.00625000 21.3056
0.00640625 21.1054
0.00656250 20.9125
0.00671875 20.7264
0.00687500 20.5466
0.00718750 20.2050
0.00750000 19.8850
0.00781250 19.5845
0.00812500 19.3015
0.00843750 19.0345
0.00875000 18.7820
0.00906250 18.5427
0.00937500 18.3155
0.00968750 18.0994
0.0100000 17.8936
0.0103125 17.6972
0.0106250 17.5096
0.0109375 17.3301
0.0112500 17.1582
0.0115625 16.9933
0.0118750 16.8351
0.0121875 16.6829
0.0125000 16.5365
0.0128125 16.3955
0.0131250 16.2597
0.0134375 16.1285
0.0137500 16.0019
0.0143750 15.7613
0.0150000 15.5358
0.0156250 15.3241
0.0162500 15.1247
0.0168750 14.9366
0.0175000 14.7586
0.0181250 14.5899
0.0187500 14.4298
0.0193750 14.2774
0.0200000 14.1323
0.0206625 13.9858
0.0213250 13.8461
0.0219875 13.7129
0.0226500 13.5855
0.0233125 13.4636
0.0239750 13.3469
0.0246375 13.2348
0.0253000 13.1273
0.0264578 12.9491
0.0276156 12.7822
0.0287734 12.6256
0.0299313 12.4782
0.0310891 12.3391
0.0322469 12.2076
0.0334047 12.0830
0.0345625 11.9647
0.0355274 11.8706
0.0364922 11.7803
0.0374570 11.6934
0.0384219 11.6099
0.0393867 11.5294
0.0403516 11.4519
0.0413164 11.3770
0.0422813 11.3048
0.0442109 11.1675
0.0461406 11.0389
0.0480703 10.9181
0.0500000 10.8044
0.0515625 10.7171
0.0531250 10.6337
0.0546875 10.5539
0.0562500 10.4774
0.0578125 10.4040
0.0593750 10.3336
0.0609375 10.2659
0.0625000 10.2008
0.0640625 10.1381
0.0656250 10.0777
0.0671875 10.0194
0.0687500 9.96306
0.0718750 9.85600
0.0750000 9.75569
0.0781250 9.66144
0.0812500 9.57267
0.0843750 9.48887
0.0875000 9.40961
0.0906250 9.33450
0.0937500 9.26317
0.0968750 9.19533
0.100000 9.13071
0.103125 9.06904
0.106250 9.01012
0.109375 8.95375
0.112500 8.89975
0.115625 8.84795
0.118750 8.79822
0.121875 8.75042
0.125000 8.70444
0.128125 8.66015
0.131250 8.61747
0.134375 8.57630
0.137500 8.53655
0.143750 8.46096
0.150000 8.39011
0.156250 8.32353
0.162500 8.26082
0.168750 8.20163
0.175000 8.14565
0.181250 8.09260
0.187500 8.04223
0.193750 7.99435
0.200000 7.94874
0.209375 7.88419
0.218750 7.82380
0.228125 7.76716
0.237500 7.71391
0.246875 7.66372
0.256250 7.61631
0.265625 7.57144
0.275000 7.52889
0.284375 7.48846
0.293750 7.44999
0.303125 7.41332
0.312500 7.37831
0.321875 7.34484
0.331250 7.31281
0.340625 7.28211
0.350000 7.25265
0.359375 7.22435
0.368750 7.19714
0.378125 7.17096
0.387500 7.14574
0.396875 7.12144
0.406250 7.09800
0.425000 7.05345
0.443750 7.01169
0.462500 6.97249
0.500000 6.90095
0.531250 6.84722
0.562500 6.79792
0.593750 6.75257
0.625000 6.71067
0.687500 6.63561
0.750000 6.57016
0.812500 6.51242
0.875000 6.46113
0.937500 6.41506
1.00000 6.37323
1.06250 6.33516
1.12500 6.30032
1.18750 6.26826
1.25000 6.23865
1.37500 6.18560
1.50000 6.13934
1.62500 6.09853
1.75000 6.06226
1.87500 6.02967
2.00000 6.00008
2.18750 5.96058
2.37500 5.92588
2.56250 5.89507
2.75000 5.86751
2.93750 5.84264
3.12500 5.82000
3.31250 5.79931
3.50000 5.78030
3.87500 5.74652
4.25000 5.71731
4.62500 5.69174
5.00000 5.66913
5.31250 5.65214
5.62500 5.63658
5.93750 5.62225
6.25000 5.60902
6.87500 5.58532
7.50000 5.56465
8.12500 5.54641
8.75000 5.53018
9.37500 5.51560
10.0000 5.50239
10.6250 5.49037
11.2500 5.47937
11.8750 5.46924
12.5000 5.45989
13.7500 5.44313
15.0000 5.42852
16.2500 5.41563
17.5000 5.40415
18.7500 5.39384
20.0000 5.38450
21.8750 5.37203
23.7500 5.36106
25.6250 5.35133
27.5000 5.34261
29.3750 5.33474
31.2500 5.32759
33.1250 5.32105
35.0000 5.31505
38.7500 5.30437
42.5000 5.29515
46.2500 5.28706
50.0000 5.27991
53.1250 5.27454
56.2500 5.26962
59.3750 5.26510
62.5000 5.26092
68.7500 5.25342
75.0000 5.24689
81.2500 5.24113
87.5000 5.23599
93.7500 5.23138
100.000 5.22721
105.000 5.22414
110.000 5.22129
115.000 5.21862
120.000 5.21612
125.000 5.21378
130.000 5.21157
135.000 5.20948
137.500 5.20849
138.750 5.20803
138.906 5.20840
138.984 5.20940
139.063 5.21236
139.102 5.21541
139.141 5.22031
139.180 5.22801
139.219 5.23982
139.258 5.25768
139.277 5.26958
139.297 5.28396
139.317 5.30136
139.336 5.32206
139.356 5.34671
139.375 5.37589
139.395 5.41044
139.414 5.45075
139.434 5.49800
139.453 5.55254
139.473 5.61583
139.492 5.68813
139.512 5.77070
139.531 5.86452
139.551 5.97115
139.570 6.09050
139.590 6.22404
139.609 6.37269
139.629 6.53820
139.649 6.71968
139.658 6.81743
139.668 6.91861
139.678 7.02535
139.688 7.13555
139.707 7.37219
139.727 7.62639
139.746 7.89937
139.766 8.19105
139.785 8.50274
139.805 8.83074
139.824 9.17586
139.844 9.53713
139.863 9.91535
139.883 10.3053
139.922 11.1195
139.961 11.9695
140.000 12.8343
140.000 20.4532
150.000 19.9308
160.000 19.4587
170.000 19.0286
177.500 18.7310
185.000 18.4514
200.000 17.9398
212.500 17.5576
225.000 17.2071
237.500 16.8841
250.000 16.5850
262.500 16.3100
275.000 16.0534
287.500 15.8132
300.000 15.5877
312.500 15.3779
325.000 15.1799
350.000 14.8147
375.000 14.4893
400.000 14.1934
425.000 13.9278
450.000 13.6833
475.000 13.4571
500.000 13.2470
525.000 13.0563
550.000 12.8778
575.000 12.7102
600.000 12.5523
630.000 12.3795
660.000 12.2175
690.000 12.0653
720.000 11.9217
760.000 11.7472
800.000 11.5846
850.000 11.4026
900.000 11.2342
950.000 11.0777
1000.00 10.9317
1062.50 10.7712
1125.00 10.6225
1187.50 10.4840
1250.00 10.3547
1375.00 10.1325
1500.00 9.93461
1600.00 9.79769
1700.00 9.67109
1850.00 9.50618
2000.00 9.35705
2125.00 9.25110
2250.00 9.15249
2500.00 8.97396
2750.00 8.82910
3000.00 8.69929
3250.00 8.59093
3500.00 8.49207
3750.00 8.40784
4000.00 8.33001
4500.00 8.20371
5000.00 8.09296
5500.00 8.00665
6000.00 7.92913
6500.00 7.86688
7000.00 7.81007
7500.00 7.76354
8000.00 7.72059
8500.00 7.68665
9000.00 7.65509
10000.0 7.59798
10625.0 7.57275
11250.0 7.54939
11875.0 7.52765
12500.0 7.50735
13750.0 7.47974
15000.0 7.45550
16000.0 7.44257
17000.0 7.43088
18500.0 7.42043
20000.0 7.41156
21250.0 7.40972
22500.0 7.40840
23750.0 7.40751
25000.0 7.40699
26250.0 7.41025
27500.0 7.41363
28750.0 7.41709
30000.0 7.42062
32500.0 7.43210
35000.0 7.44338
37500.0 7.45722
40000.0 7.47063
42500.0 7.48620
45000.0 7.50123
47500.0 7.51576
50000.0 7.52982
52500.0 7.54524
55000.0 7.56014
57500.0 7.57458
60000.0 7.58856
65000.0 7.61684
70000.0 7.64351
75000.0 7.66927
80000.0 7.69371
85000.0 7.71668
90000.0 7.73853
94999.9 7.75936
99999.9 7.77928
100000 7.76678
112500 7.77435
125000 7.78133
137500 7.78780
150000 7.79385
175000 7.77675
200000 7.76204
250000 7.69941
300000 7.62057
350000 7.50977
400000 7.41532
450000 7.33317
500000 7.26059
519890 7.21980
539780 7.18079
559670 7.14345
579561 7.10763
599451 7.07323
619341 7.04015
639231 7.00830
659121 6.97759
661676 6.97252
664231 6.96755
669341 6.95790
674451 6.94864
679561 6.93974
689780 6.92298
700000 6.90752
712500 6.88373
725000 6.86087
737500 6.83889
750000 6.81776
762500 6.79743
775000 6.77786
787500 6.75902
800000 6.74088
812500 6.71904
825000 6.69776
837500 6.67703
850000 6.65682
862500 6.63713
875000 6.61792
887500 6.59918
900000 6.58090
912500 6.56027
925000 6.54007
937500 6.52031
950000 6.50095
962500 6.48199
975000 6.46341
987500 6.44520
1.00000E+06 6.42736
1.01994E+06 6.39471
1.01994E+06 6.39471
1.04870E+06 6.34792
1.07746E+06 6.30306
1.10621E+06 6.25999
1.13497E+06 6.21860
1.16373E+06 6.17879
1.19249E+06 6.14047
1.22124E+06 6.10355
1.25000E+06 6.06794
1.27118E+06 6.03816
1.29236E+06 6.00914
1.31353E+06 5.98086
1.33471E+06 5.95328
1.33471E+06 5.95328
1.33956E+06 5.94657
1.34440E+06 5.93991
1.35408E+06 5.92672
1.36377E+06 5.91371
1.37346E+06 5.90088
1.39283E+06 5.87574
1.41220E+06 5.85126
1.41220E+06 5.85126
1.41644E+06 5.84570
1.42069E+06 5.84018
1.42917E+06 5.82926
1.42918E+06 5.82924
1.43360E+06 5.82316
1.43803E+06 5.81714
1.44688E+06 5.80528
1.45573E+06 5.79365
1.46459E+06 5.78225
1.48229E+06 5.76011
1.50000E+06 5.73882
1.53125E+06 5.69509
1.56250E+06 5.65323
1.59375E+06 5.61314
1.62500E+06 5.57472
1.65625E+06 5.53788
1.68750E+06 5.50253
1.71875E+06 5.46859
1.75000E+06 5.43598
1.78286E+06 5.39756
1.81572E+06 5.36050
1.82070E+06 5.35482
1.82567E+06 5.34917
1.83562E+06 5.33798
1.84076E+06 5.33176
1.84589E+06 5.32558
1.85617E+06 5.31334
1.87672E+06 5.28937
1.89726E+06 5.26604
1.91781E+06 5.24333
1.93836E+06 5.22122
1.95891E+06 5.19970
1.97945E+06 5.17873
2.00000E+06 5.15832
2.00213E+06 5.15603
2.00426E+06 5.15376
2.00638E+06 5.15149
2.00851E+06 5.14922
2.01064E+06 5.14696
2.01277E+06 5.14471
2.01489E+06 5.14246
2.01702E+06 5.14022
2.01915E+06 5.13798
2.02128E+06 5.13575
2.02340E+06 5.13352
2.02553E+06 5.13130
2.02766E+06 5.12908
2.02979E+06 5.12687
2.03191E+06 5.12466
2.03404E+06 5.12246
2.03404E+06 5.12245
2.03735E+06 5.11876
2.04065E+06 5.11508
2.04396E+06 5.11142
2.04726E+06 5.10776
2.05056E+06 5.10412
2.05387E+06 5.10050
2.05717E+06 5.09688
2.06048E+06 5.09328
2.06378E+06 5.08969
2.06708E+06 5.08612
2.07039E+06 5.08256
2.07369E+06 5.07901
2.07700E+06 5.07547
2.08030E+06 5.07195
2.08360E+06 5.06844
2.08691E+06 5.06494
2.09021E+06 5.06146
2.09352E+06 5.05798
2.09682E+06 5.05452
2.10012E+06 5.05107
2.10343E+06 5.04764
2.10673E+06 5.04421
2.11004E+06 5.04080
2.11334E+06 5.03740
2.11664E+06 5.03401
2.11995E+06 5.03064
2.12325E+06 5.02727
2.12656E+06 5.02392
2.12986E+06 5.02058
2.13316E+06 5.01725
2.13647E+06 5.01393
2.13977E+06 5.01063
2.14308E+06 5.00734
2.14638E+06 5.00405
2.14968E+06 5.00078
2.15299E+06 4.99752
2.15629E+06 4.99428
2.15960E+06 4.99104
2.16290E+06 4.98781
2.16620E+06 4.98460
2.16951E+06 4.98140
2.17281E+06 4.97820
2.17612E+06 4.97502
2.17942E+06 4.97185
2.18272E+06 4.96869
2.18603E+06 4.96555
2.18933E+06 4.96241
2.19264E+06 4.95928
2.19594E+06 4.95617
2.19924E+06 4.95306
2.20255E+06 4.94997
2.20585E+06 4.94688
2.20916E+06 4.94381
2.21246E+06 4.94075
2.21576E+06 4.93770
2.21907E+06 4.93465
2.22237E+06 4.93162
2.22568E+06 4.92860
2.22898E+06 4.92559
2.23228E+06 4.92259
2.23559E+06 4.91960
2.23889E+06 4.91662
2.24220E+06 4.91365
2.24550E+06 4.91069
2.24878E+06 4.90754
2.25207E+06 4.90440
2.25535E+06 4.90126
2.25863E+06 4.89814
2.25863E+06 4.89814
2.26260E+06 4.89435
2.26657E+06 4.89058
2.27053E+06 4.88683
2.27450E+06 4.88309
2.27846E+06 4.87936
2.28243E+06 4.87564
2.28640E+06 4.87194
2.29036E+06 4.86826
2.29491E+06 4.86399
2.29945E+06 4.85975
2.30400E+06 4.85552
2.30854E+06 4.85131
2.30854E+06 4.85130
2.31328E+06 4.84678
2.31801E+06 4.84228
2.32275E+06 4.83779
2.32748E+06 4.83333
2.33222E+06 4.82889
2.33696E+06 4.82446
2.34169E+06 4.82006
2.34643E+06 4.81567
2.35116E+06 4.81131
2.35590E+06 4.80696
2.36064E+06 4.80263
2.36537E+06 4.79832
2.37011E+06 4.79403
2.37484E+06 4.78976
2.37958E+06 4.78551
2.38432E+06 4.78127
2.38905E+06 4.77706
2.39379E+06 4.77286
2.39852E+06 4.76868
2.40326E+06 4.76451
2.40800E+06 4.76037
2.41273E+06 4.75624
2.41747E+06 4.75214
2.42220E+06 4.74805
2.42694E+06 4.74397
2.43168E+06 4.73992
2.43641E+06 4.73588
2.44115E+06 4.73185
2.44588E+06 4.72785
2.45062E+06 4.72386
2.45536E+06 4.71989
2.46009E+06 4.71594
2.46362E+06 4.71284
2.46716E+06 4.70976
2.47069E+06 4.70668
2.47422E+06 4.70362
2.47776E+06 4.70057
2.48129E+06 4.69752
2.48482E+06 4.69449
2.48835E+06 4.69147
2.49189E+06 4.68846
2.49542E+06 4.68546
2.49895E+06 4.68246
2.50248E+06 4.67948
2.50602E+06 4.67651
2.50955E+06 4.67355
2.51308E+06 4.67060
2.51662E+06 4.66766
2.52015E+06 4.66472
2.52368E+06 4.66180
2.52721E+06 4.65889
2.53075E+06 4.65599
2.53428E+06 4.65309
2.53781E+06 4.65021
2.54135E+06 4.64734
2.54488E+06 4.64447
2.54841E+06 4.64162
2.55194E+06 4.63877
2.55548E+06 4.63594
2.55901E+06 4.63311
2.56254E+06 4.63029
2.56608E+06 4.62749
2.56961E+06 4.62469
2.57314E+06 4.62190
2.57662E+06 4.61906
2.58009E+06 4.61623
2.58357E+06 4.61341
2.58704E+06 4.61060
2.59052E+06 4.60779
2.59400E+06 4.60500
2.59747E+06 4.60221
2.60095E+06 4.59944
2.60442E+06 4.59667
2.60790E+06 4.59391
2.61138E+06 4.59116
2.61485E+06 4.58842
2.61833E+06 4.58568
2.62180E+06 4.58296
2.62528E+06 4.58024
2.62876E+06 4.57753
2.63223E+06 4.57483
2.63571E+06 4.57214
2.63918E+06 4.56945
2.64266E+06 4.56678
2.64614E+06 4.56411
2.64961E+06 4.56145
2.65309E+06 4.55880
2.65656E+06 4.55616
2.66004E+06 4.55352
2.66352E+06 4.55090
2.66699E+06 4.54828
2.67047E+06 4.54567
2.67394E+06 4.54306
2.67742E+06 4.54047
2.68090E+06 4.53788
2.68437E+06 4.53530
2.68438E+06 4.53530
2.68791E+06 4.53264
2.69145E+06 4.52999
2.69498E+06 4.52735
2.69852E+06 4.52471
2.70323E+06 4.52111
2.70794E+06 4.51753
2.71265E+06 4.51396
2.71736E+06 4.51040
2.72207E+06 4.50686
2.72678E+06 4.50334
2.73150E+06 4.49983
2.73621E+06 4.49633
2.74092E+06 4.49285
2.74563E+06 4.48939
2.75034E+06 4.48594
2.75505E+06 4.48250
2.75976E+06 4.47908
2.76447E+06 4.47567
2.76918E+06 4.47228
2.77389E+06 4.46890
2.77860E+06 4.46553
2.78331E+06 4.46218
2.78802E+06 4.45884
2.79273E+06 4.45552
2.79744E+06 4.45221
2.80215E+06 4.44892
2.80687E+06 4.44563
2.81158E+06 4.44237
2.81629E+06 4.43911
2.82100E+06 4.43587
2.82571E+06 4.43264
2.83042E+06 4.42943
2.83513E+06 4.42623
2.83984E+06 4.42304
2.84455E+06 4.41986
2.84926E+06 4.41670
2.85397E+06 4.41355
2.85868E+06 4.41042
2.86339E+06 4.40729
2.86810E+06 4.40418
2.87281E+06 4.40109
2.87752E+06 4.39800
2.88224E+06 4.39493
2.88695E+06 4.39187
2.89166E+06 4.38882
2.89637E+06 4.38579
2.90108E+06 4.38276
2.90579E+06 4.37975
2.91050E+06 4.37675
2.91521E+06 4.37377
2.91992E+06 4.37079
2.92463E+06 4.36783
2.92934E+06 4.36488
2.93405E+06 4.36194
2.93876E+06 4.35901
2.94347E+06 4.35610
2.94818E+06 4.35320
2.95289E+06 4.35030
2.95761E+06 4.34742
2.96232E+06 4.34456
2.96703E+06 4.34170
2.97174E+06 4.33885
2.97645E+06 4.33602
2.98116E+06 4.33319
2.98587E+06 4.33038
2.99058E+06 4.32758
2.99529E+06 4.32479
3.00000E+06 4.32201
3.00781E+06 4.31770
3.01563E+06 4.31341
3.02344E+06 4.30915
3.03125E+06 4.30492
3.03906E+06 4.30071
3.04688E+06 4.29653
3.05469E+06 4.29238
3.06250E+06 4.28825
3.07031E+06 4.28415
3.07813E+06 4.28008
3.08594E+06 4.27603
3.09375E+06 4.27201
3.10156E+06 4.26802
3.10938E+06 4.26404
3.11719E+06 4.26010
3.12500E+06 4.25618
3.13281E+06 4.25228
3.14063E+06 4.24841
3.14844E+06 4.24456
3.15625E+06 4.24074
3.16406E+06 4.23694
3.17188E+06 4.23317
3.17969E+06 4.22942
3.18750E+06 4.22569
3.19531E+06 4.22198
3.20313E+06 4.21830
3.21094E+06 4.21464
3.21875E+06 4.21101
3.22656E+06 4.20739
3.23438E+06 4.20380
3.24219E+06 4.20023
3.25000E+06 4.19669
3.25781E+06 4.19316
3.26563E+06 4.18966
3.27344E+06 4.18618
3.28125E+06 4.18271
3.28906E+06 4.17927
3.29688E+06 4.17586
3.30469E+06 4.17246
3.31250E+06 4.16908
3.32031E+06 4.16572
3.32813E+06 4.16239
3.33594E+06 4.15907
3.34375E+06 4.15578
3.35156E+06 4.15250
3.35938E+06 4.14925
3.36719E+06 4.14601
3.37500E+06 4.14279
3.38281E+06 4.13959
3.39063E+06 4.13642
3.39844E+06 4.13326
3.40625E+06 4.13012
3.41406E+06 4.12699
3.42188E+06 4.12389
3.42969E+06 4.12081
3.43750E+06 4.11774
3.44531E+06 4.11469
3.45313E+06 4.11167
3.46094E+06 4.10865
3.46875E+06 4.10566
3.47656E+06 4.10268
3.48438E+06 4.09973
3.49219E+06 4.09679
3.50000E+06 4.09386
3.50781E+06 4.09096
3.51563E+06 4.08807
3.52344E+06 4.08520
3.53125E+06 4.08234
3.53906E+06 4.07950
3.54688E+06 4.07668
3.55469E+06 4.07388
3.56250E+06 4.07109
3.57031E+06 4.06831
3.57813E+06 4.06556
3.58594E+06 4.06282
3.59375E+06 4.06009
3.60156E+06 4.05739
3.60938E+06 4.05469
3.61719E+06 4.05202
3.62500E+06 4.04936
3.63281E+06 4.04671
3.64063E+06 4.04408
3.64844E+06 4.04146
3.65625E+06 4.03886
3.66406E+06 4.03628
3.67188E+06 4.03371
3.67969E+06 4.03115
3.68750E+06 4.02861
3.69531E+06 4.02609
3.70313E+06 4.02358
3.71094E+06 4.02108
3.71875E+06 4.01860
3.72656E+06 4.01613
3.73438E+06 4.01367
3.74219E+06 4.01123
3.75000E+06 4.00881
3.75781E+06 4.00640
3.76563E+06 4.00400
3.77344E+06 4.00161
3.78125E+06 3.99924
3.78906E+06 3.99688
3.79688E+06 3.99454
3.80469E+06 3.99221
3.81250E+06 3.98989
3.82031E+06 3.98759
3.82813E+06 3.98529
3.83594E+06 3.98302
3.84375E+06 3.98075
3.85156E+06 3.97850
3.85938E+06 3.97626
3.86719E+06 3.97403
3.87500E+06 3.97182
3.88281E+06 3.96962
3.89063E+06 3.96743
3.89844E+06 3.96525
3.90625E+06 3.96309
3.91406E+06 3.96093
3.92188E+06 3.95879
3.92969E+06 3.95667
3.93750E+06 3.95455
3.94531E+06 3.95245
3.95313E+06 3.95035
3.96094E+06 3.94827
3.96875E+06 3.94621
3.97656E+06 3.94415
3.98438E+06 3.94210
3.99219E+06 3.94007
4.00000E+06 3.93805
4.01476E+06 3.93633
4.02951E+06 3.93462
4.04426E+06 3.93293
4.05902E+06 3.93125
4.07377E+06 3.92959
4.08853E+06 3.92794
4.10328E+06 3.92630
4.11804E+06 3.92468
4.13279E+06 3.92307
4.14754E+06 3.92148
4.16230E+06 3.91990
4.17705E+06 3.91833
4.19181E+06 3.91678
4.20656E+06 3.91524
4.22132E+06 3.91372
4.23607E+06 3.91220
4.25083E+06 3.91070
4.26558E+06 3.90922
4.28033E+06 3.90774
4.29509E+06 3.90628
4.30984E+06 3.90483
4.32460E+06 3.90339
4.33935E+06 3.90197
4.35411E+06 3.90055
4.36886E+06 3.89915
4.38361E+06 3.89776
4.39837E+06 3.89639
4.41312E+06 3.89502
4.42788E+06 3.89367
4.44263E+06 3.89233
4.45739E+06 3.89100
4.47214E+06 3.88968
4.48864E+06 3.88798
4.50513E+06 3.88630
4.52163E+06 3.88464
4.53812E+06 3.88299
4.55462E+06 3.88136
4.57111E+06 3.87974
4.58761E+06 3.87814
4.60411E+06 3.87655
4.62060E+06 3.87498
4.63710E+06 3.87343
4.65359E+06 3.87188
4.67009E+06 3.87036
4.68658E+06 3.86885
4.70308E+06 3.86735
4.71958E+06 3.86586
4.73607E+06 3.86440
4.75257E+06 3.86294
4.76906E+06 3.86150
4.78556E+06 3.86007
4.80205E+06 3.85866
4.81855E+06 3.85726
4.83504E+06 3.85588
4.85154E+06 3.85451
4.86804E+06 3.85315
4.88453E+06 3.85181
4.90103E+06 3.85048
4.91752E+06 3.84917
4.93402E+06 3.84787
4.95051E+06 3.84658
4.96701E+06 3.84531
4.98351E+06 3.84405
5.00000E+06 3.84280
5.01491E+06 3.84294
5.02983E+06 3.84308
5.04474E+06 3.84322
5.05965E+06 3.84337
5.07457E+06 3.84352
5.08948E+06 3.84367
5.10440E+06 3.84383
5.11931E+06 3.84399
5.13422E+06 3.84416
5.14914E+06 3.84432
5.16405E+06 3.84449
5.17896E+06 3.84467
5.19388E+06 3.84485
5.20879E+06 3.84503
5.22370E+06 3.84521
5.23862E+06 3.84540
5.25353E+06 3.84559
5.26844E+06 3.84578
5.28336E+06 3.84598
5.29827E+06 3.84617
5.31318E+06 3.84638
5.32810E+06 3.84658
5.34301E+06 3.84679
5.35792E+06 3.84700
5.37284E+06 3.84722
5.38775E+06 3.84743
5.40266E+06 3.84766
5.41758E+06 3.84788
5.43249E+06 3.84811
5.44740E+06 3.84834
5.46232E+06 3.84857
5.47723E+06 3.84880
5.49320E+06 3.84896
5.50916E+06 3.84913
5.52512E+06 3.84930
5.54109E+06 3.84947
5.55705E+06 3.84965
5.57302E+06 3.84982
5.58898E+06 3.85001
5.60495E+06 3.85019
5.62091E+06 3.85038
5.63687E+06 3.85058
5.65284E+06 3.85077
5.66880E+06 3.85097
5.68477E+06 3.85118
5.70073E+06 3.85139
5.71670E+06 3.85160
5.73266E+06 3.85182
5.74937E+06 3.85197
5.76608E+06 3.85213
5.78279E+06 3.85229
5.79950E+06 3.85246
5.81620E+06 3.85263
5.83291E+06 3.85281
5.84962E+06 3.85299
5.86633E+06 3.85317
5.88304E+06 3.85336
5.89975E+06 3.85356
5.91646E+06 3.85376
5.93317E+06 3.85396
5.94987E+06 3.85417
5.96658E+06 3.85438
5.98329E+06 3.85460
6.00000E+06 3.85482
6.01180E+06 3.85557
6.02360E+06 3.85633
6.03540E+06 3.85709
6.04720E+06 3.85785
6.05672E+06 3.85842
6.06623E+06 3.85899
6.07575E+06 3.85957
6.08527E+06 3.86014
6.09478E+06 3.86072
6.10430E+06 3.86130
6.11381E+06 3.86188
6.12333E+06 3.86246
6.13285E+06 3.86304
6.14236E+06 3.86363
6.15188E+06 3.86421
6.16140E+06 3.86480
6.17091E+06 3.86539
6.18043E+06 3.86598
6.18994E+06 3.86657
6.19946E+06 3.86716
6.20898E+06 3.86776
6.21849E+06 3.86836
6.22801E+06 3.86895
6.23753E+06 3.86955
6.24704E+06 3.87015
6.25656E+06 3.87075
6.26607E+06 3.87136
6.27559E+06 3.87196
6.28511E+06 3.87257
6.29462E+06 3.87318
6.30414E+06 3.87379
6.31366E+06 3.87440
6.32317E+06 3.87501
6.33269E+06 3.87562
6.34220E+06 3.87624
6.35172E+06 3.87685
6.36160E+06 3.87742
6.37149E+06 3.87800
6.38137E+06 3.87857
6.39125E+06 3.87915
6.40114E+06 3.87972
6.41102E+06 3.88030
6.42091E+06 3.88088
6.43079E+06 3.88146
6.44067E+06 3.88204
6.45056E+06 3.88263
6.46044E+06 3.88321
6.47032E+06 3.88380
6.48021E+06 3.88438
6.49009E+06 3.88497
6.49997E+06 3.88556
6.50986E+06 3.88615
6.51974E+06 3.88674
6.52962E+06 3.88733
6.53951E+06 3.88793
6.54939E+06 3.88852
6.55927E+06 3.88912
6.56916E+06 3.88972
6.57904E+06 3.89031
6.58892E+06 3.89091
6.59881E+06 3.89151
6.60869E+06 3.89211
6.61857E+06 3.89272
6.62846E+06 3.89332
6.63834E+06 3.89393
6.64822E+06 3.89453
6.65811E+06 3.89514
6.66799E+06 3.89575
6.67837E+06 3.89632
6.68874E+06 3.89690
6.69912E+06 3.89748
6.70949E+06 3.89805
6.71987E+06 3.89863
6.73024E+06 3.89921
6.74062E+06 3.89980
6.75099E+06 3.90038
6.76137E+06 3.90096
6.77174E+06 3.90155
6.78212E+06 3.90214
6.79249E+06 3.90272
6.80287E+06 3.90331
6.81325E+06 3.90390
6.82362E+06 3.90450
6.83400E+06 3.90509
6.84437E+06 3.90568
6.85475E+06 3.90628
6.86512E+06 3.90688
6.87550E+06 3.90747
6.88587E+06 3.90807
6.89625E+06 3.90867
6.90662E+06 3.90927
6.91700E+06 3.90988
6.92737E+06 3.91048
6.93775E+06 3.91108
6.94812E+06 3.91169
6.95850E+06 3.91230
6.96888E+06 3.91290
6.97925E+06 3.91351
6.98963E+06 3.91412
7.00000E+06 3.91474
7.00417E+06 3.91516
7.00834E+06 3.91558
7.01251E+06 3.91601
7.01668E+06 3.91643
7.02084E+06 3.91686
7.02501E+06 3.91728
7.02918E+06 3.91771
7.03335E+06 3.91813
7.03752E+06 3.91856
7.04169E+06 3.91898
7.04586E+06 3.91941
7.05002E+06 3.91983
7.05419E+06 3.92026
7.05836E+06 3.92069
7.06253E+06 3.92111
7.06670E+06 3.92154
7.07087E+06 3.92197
7.07504E+06 3.92239
7.07921E+06 3.92282
7.08337E+06 3.92325
7.08754E+06 3.92367
7.09171E+06 3.92410
7.09588E+06 3.92453
7.10005E+06 3.92496
7.10422E+06 3.92539
7.10838E+06 3.92582
7.11255E+06 3.92624
7.11672E+06 3.92667
7.12089E+06 3.92710
7.12506E+06 3.92753
7.12923E+06 3.92796
7.13340E+06 3.92839
7.13756E+06 3.92882
7.14173E+06 3.92925
7.14590E+06 3.92968
7.15007E+06 3.93011
7.15424E+06 3.93054
7.15841E+06 3.93097
7.16258E+06 3.93140
7.16674E+06 3.93183
7.17091E+06 3.93226
7.17508E+06 3.93269
7.17925E+06 3.93312
7.18342E+06 3.93355
7.18759E+06 3.93399
7.19176E+06 3.93442
7.19593E+06 3.93485
7.20009E+06 3.93528
7.20426E+06 3.93572
7.20843E+06 3.93615
7.21260E+06 3.93658
7.21677E+06 3.93701
7.22094E+06 3.93745
7.22511E+06 3.93788
7.22927E+06 3.93831
7.23344E+06 3.93875
7.23761E+06 3.93918
7.24178E+06 3.93961
7.24595E+06 3.94005
7.25012E+06 3.94048
7.25429E+06 3.94091
7.25845E+06 3.94135
7.26262E+06 3.94178
7.26679E+06 3.94222
7.27238E+06 3.94277
7.27797E+06 3.94332
7.28356E+06 3.94387
7.28915E+06 3.94442
7.29474E+06 3.94497
7.30033E+06 3.94552
7.30593E+06 3.94607
7.31152E+06 3.94662
7.31711E+06 3.94717
7.32270E+06 3.94772
7.32829E+06 3.94827
7.33388E+06 3.94882
7.33947E+06 3.94938
7.34506E+06 3.94993
7.35065E+06 3.95048
7.35624E+06 3.95103
7.36183E+06 3.95158
7.36742E+06 3.95214
7.37301E+06 3.95269
7.37860E+06 3.95324
7.38419E+06 3.95380
7.38978E+06 3.95435
7.39538E+06 3.95491
7.40097E+06 3.95546
7.40656E+06 3.95602
7.41215E+06 3.95657
7.41774E+06 3.95713
7.42333E+06 3.95768
7.42892E+06 3.95824
7.43451E+06 3.95879
7.44010E+06 3.95935
7.44569E+06 3.95990
7.45128E+06 3.96046
7.45687E+06 3.96102
7.46246E+06 3.96157
7.46805E+06 3.96213
7.47364E+06 3.96269
7.47923E+06 3.96325
7.48483E+06 3.96380
7.49042E+06 3.96436
7.49601E+06 3.96492
7.50160E+06 3.96548
7.50719E+06 3.96604
7.51278E+06 3.96660
7.51837E+06 3.96716
7.52396E+06 3.96772
7.52955E+06 3.96828
7.53514E+06 3.96884
7.54073E+06 3.96940
7.54632E+06 3.96995
7.55191E+06 3.97052
7.55750E+06 3.97108
7.56309E+06 3.97164
7.56868E+06 3.97220
7.57428E+06 3.97276
7.57987E+06 3.97332
7.58546E+06 3.97388
7.59105E+06 3.97445
7.59664E+06 3.97501
7.60223E+06 3.97557
7.60782E+06 3.97613
7.61341E+06 3.97669
7.61900E+06 3.97726
7.62459E+06 3.97782
7.63046E+06 3.97838
7.63632E+06 3.97893
7.64219E+06 3.97949
7.64805E+06 3.98004
7.65392E+06 3.98060
7.65979E+06 3.98115
7.66565E+06 3.98171
7.67152E+06 3.98226
7.67738E+06 3.98282
7.68325E+06 3.98338
7.68912E+06 3.98393
7.69498E+06 3.98449
7.70085E+06 3.98505
7.70671E+06 3.98561
7.71258E+06 3.98616
7.71844E+06 3.98672
7.72431E+06 3.98728
7.73018E+06 3.98784
7.73604E+06 3.98839
7.74191E+06 3.98895
7.74777E+06 3.98951
7.75364E+06 3.99007
7.75950E+06 3.99063
7.76537E+06 3.99119
7.77124E+06 3.99175
7.77710E+06 3.99231
7.78297E+06 3.99287
7.78883E+06 3.99343
7.79470E+06 3.99399
7.80056E+06 3.99455
7.80643E+06 3.99511
7.81230E+06 3.99568
7.81816E+06 3.99624
7.82403E+06 3.99680
7.82989E+06 3.99736
7.83576E+06 3.99792
7.84163E+06 3.99848
7.84749E+06 3.99905
7.85336E+06 3.99961
7.85922E+06 4.00017
7.86509E+06 4.00074
7.87095E+06 4.00130
7.87682E+06 4.00186
7.88269E+06 4.00243
7.88855E+06 4.00299
7.89442E+06 4.00356
7.90028E+06 4.00412
7.90615E+06 4.00469
7.91201E+06 4.00525
7.91788E+06 4.00581
7.92375E+06 4.00638
7.92961E+06 4.00695
7.93548E+06 4.00751
7.94134E+06 4.00808
7.94721E+06 4.00864
7.95307E+06 4.00921
7.95894E+06 4.00978
7.96481E+06 4.01034
7.97067E+06 4.01091
7.97654E+06 4.01148
7.98240E+06 4.01205
7.98827E+06 4.01261
7.99414E+06 4.01318
8.00000E+06 4.01375
8.00596E+06 4.01455
8.01191E+06 4.01536
8.01787E+06 4.01616
8.02382E+06 4.01697
8.02978E+06 4.01777
8.03573E+06 4.01857
8.04169E+06 4.01938
8.04764E+06 4.02018
8.05360E+06 4.02099
8.05955E+06 4.02179
8.06551E+06 4.02260
8.07146E+06 4.02340
8.07742E+06 4.02421
8.08337E+06 4.02501
8.08933E+06 4.02582
8.09528E+06 4.02662
8.10124E+06 4.02743
8.10719E+06 4.02823
8.11315E+06 4.02904
8.11910E+06 4.02984
8.12506E+06 4.03065
8.13101E+06 4.03146
8.13697E+06 4.03226
8.14292E+06 4.03307
8.14888E+06 4.03387
8.15483E+06 4.03468
8.16079E+06 4.03549
8.16674E+06 4.03629
8.17270E+06 4.03710
8.17865E+06 4.03790
8.18461E+06 4.03871
8.19056E+06 4.03951
8.19652E+06 4.04032
8.20247E+06 4.04113
8.20843E+06 4.04193
8.21438E+06 4.04274
8.22034E+06 4.04355
8.22629E+06 4.04435
8.23225E+06 4.04516
8.23820E+06 4.04597
8.24416E+06 4.04677
8.25011E+06 4.04758
8.25607E+06 4.04839
8.26202E+06 4.04919
8.26798E+06 4.05000
8.27393E+06 4.05081
8.27989E+06 4.05162
8.28584E+06 4.05242
8.29180E+06 4.05323
8.29775E+06 4.05404
8.30371E+06 4.05484
8.30966E+06 4.05565
8.31562E+06 4.05646
8.32157E+06 4.05727
8.32753E+06 4.05808
8.33348E+06 4.05888
8.33944E+06 4.05969
8.34539E+06 4.06050
8.35135E+06 4.06131
8.35730E+06 4.06212
8.36326E+06 4.06292
8.36921E+06 4.06373
8.37517E+06 4.06454
8.38112E+06 4.06535
8.39079E+06 4.06660
8.40046E+06 4.06785
8.41013E+06 4.06910
8.41980E+06 4.07035
8.42947E+06 4.07160
8.43914E+06 4.07285
8.44881E+06 4.07410
8.45848E+06 4.07535
8.46815E+06 4.07660
8.47782E+06 4.07785
8.48749E+06 4.07910
8.49716E+06 4.08036
8.50683E+06 4.08161
8.51650E+06 4.08286
8.52617E+06 4.08411
8.53584E+06 4.08536
8.54551E+06 4.08661
8.55518E+06 4.08786
8.56485E+06 4.08912
8.57452E+06 4.09037
8.58419E+06 4.09162
8.59386E+06 4.09287
8.60353E+06 4.09413
8.61320E+06 4.09538
8.62287E+06 4.09663
8.63254E+06 4.09789
8.64221E+06 4.09914
8.65188E+06 4.10039
8.66155E+06 4.10165
8.67122E+06 4.10290
8.68089E+06 4.10416
8.69056E+06 4.10541
8.70023E+06 4.10666
8.70990E+06 4.10792
8.71957E+06 4.10917
8.72924E+06 4.11043
8.73891E+06 4.11168
8.74858E+06 4.11294
8.75825E+06 4.11419
8.76792E+06 4.11545
8.77759E+06 4.11670
8.78726E+06 4.11796
8.79693E+06 4.11921
8.80660E+06 4.12047
8.81627E+06 4.12173
8.82594E+06 4.12298
8.83561E+06 4.12424
8.84528E+06 4.12550
8.85495E+06 4.12675
8.86462E+06 4.12801
8.87429E+06 4.12927
8.88396E+06 4.13052
8.89363E+06 4.13178
8.90330E+06 4.13304
8.91297E+06 4.13430
8.92264E+06 4.13555
8.93231E+06 4.13681
8.94198E+06 4.13807
8.95165E+06 4.13933
8.96132E+06 4.14059
8.97099E+06 4.14185
8.98066E+06 4.14311
8.99033E+06 4.14437
9.00000E+06 4.14563
9.00586E+06 4.14653
9.01172E+06 4.14743
9.01758E+06 4.14833
9.02344E+06 4.14924
9.02930E+06 4.15014
9.03516E+06 4.15104
9.04102E+06 4.15195
9.04688E+06 4.15285
9.05275E+06 4.15375
9.05861E+06 4.15465
9.06447E+06 4.15555
9.07033E+06 4.15646
9.07619E+06 4.15736
9.08205E+06 4.15826
9.08791E+06 4.15916
9.09377E+06 4.16006
9.09963E+06 4.16097
9.10549E+06 4.16187
9.11135E+06 4.16277
9.11721E+06 4.16367
9.12307E+06 4.16457
9.12893E+06 4.16547
9.13479E+06 4.16637
9.14065E+06 4.16728
9.14651E+06 4.16818
9.15237E+06 4.16908
9.15823E+06 4.16998
9.16409E+06 4.17088
9.16996E+06 4.17178
9.17582E+06 4.17268
9.18168E+06 4.17358
9.18754E+06 4.17448
9.19340E+06 4.17539
9.19926E+06 4.17629
9.20512E+06 4.17719
9.21098E+06 4.17809
9.21684E+06 4.17899
9.22270E+06 4.17989
9.22856E+06 4.18079
9.23442E+06 4.18169
9.24028E+06 4.18259
9.24614E+06 4.18349
9.25200E+06 4.18439
9.25786E+06 4.18529
9.26372E+06 4.18619
9.26958E+06 4.18709
9.27544E+06 4.18799
9.28130E+06 4.18889
9.28716E+06 4.18979
9.29302E+06 4.19069
9.29889E+06 4.19159
9.30475E+06 4.19249
9.31061E+06 4.19339
9.31647E+06 4.19429
9.32233E+06 4.19519
9.32819E+06 4.19609
9.33405E+06 4.19699
9.33991E+06 4.19789
9.34577E+06 4.19879
9.35163E+06 4.19969
9.35749E+06 4.20059
9.36335E+06 4.20149
9.36921E+06 4.20239
9.37507E+06 4.20329
9.37995E+06 4.20401
9.38484E+06 4.20474
9.38972E+06 4.20546
9.39460E+06 4.20619
9.39948E+06 4.20691
9.40437E+06 4.20764
9.40925E+06 4.20836
9.41413E+06 4.20909
9.41901E+06 4.20981
9.42389E+06 4.21054
9.42878E+06 4.21126
9.43366E+06 4.21199
9.43854E+06 4.21271
9.44342E+06 4.21343
9.44831E+06 4.21416
9.45319E+06 4.21488
9.45807E+06 4.21561
9.46295E+06 4.21633
9.46783E+06 4.21706
9.47272E+06 4.21778
9.47760E+06 4.21850
9.48248E+06 4.21923
9.48736E+06 4.21995
9.49225E+06 4.22068
9.49713E+06 4.22140
9.50201E+06 4.22213
9.50689E+06 4.22285
9.51177E+06 4.22358
9.51666E+06 4.22430
9.52154E+06 4.22502
9.52642E+06 4.22575
9.53130E+06 4.22647
9.53619E+06 4.22720
9.54107E+06 4.22792
9.54595E+06 4.22865
9.55083E+06 4.22937
9.55572E+06 4.23010
9.56060E+06 4.23082
9.56548E+06 4.23154
9.57036E+06 4.23227
9.57524E+06 4.23299
9.58013E+06 4.23372
9.58501E+06 4.23444
9.58989E+06 4.23516
9.59477E+06 4.23589
9.59966E+06 4.23661
9.60454E+06 4.23734
9.60942E+06 4.23806
9.61430E+06 4.23879
9.61918E+06 4.23951
9.62407E+06 4.24023
9.62895E+06 4.24096
9.63383E+06 4.24168
9.63871E+06 4.24241
9.64360E+06 4.24313
9.64848E+06 4.24386
9.65336E+06 4.24458
9.65824E+06 4.24530
9.66312E+06 4.24603
9.66801E+06 4.24675
9.67289E+06 4.24748
9.67777E+06 4.24820
9.68265E+06 4.24893
9.68754E+06 4.24965
9.69242E+06 4.25037
9.69730E+06 4.25110
9.70218E+06 4.25182
9.70707E+06 4.25255
9.71195E+06 4.25327
9.71683E+06 4.25400
9.72171E+06 4.25472
9.72659E+06 4.25545
9.73148E+06 4.25617
9.73636E+06 4.25689
9.74124E+06 4.25762
9.74612E+06 4.25834
9.75101E+06 4.25907
9.75589E+06 4.25979
9.76077E+06 4.26052
9.76565E+06 4.26124
9.77542E+06 4.26269
9.78518E+06 4.26414
9.79495E+06 4.26559
9.80471E+06 4.26704
9.81448E+06 4.26849
9.82424E+06 4.26994
9.83400E+06 4.27139
9.84377E+06 4.27284
9.85353E+06 4.27429
9.86330E+06 4.27574
9.87306E+06 4.27719
9.88283E+06 4.27864
9.89259E+06 4.28010
9.90236E+06 4.28155
9.91212E+06 4.28300
9.92188E+06 4.28445
9.93165E+06 4.28590
9.94141E+06 4.28736
9.95118E+06 4.28881
9.96094E+06 4.29026
9.97071E+06 4.29171
9.98047E+06 4.29317
9.99024E+06 4.29462
1.00000E+07 4.29608
1.00053E+07 4.29666
1.00106E+07 4.29725
1.00158E+07 4.29785
1.00211E+07 4.29844
1.00264E+07 4.29904
1.00317E+07 4.29963
1.00369E+07 4.30024
1.00422E+07 4.30084
1.00475E+07 4.30144
1.00527E+07 4.30205
1.00580E+07 4.30266
1.00633E+07 4.30327
1.00686E+07 4.30389
1.00738E+07 4.30451
1.00791E+07 4.30513
1.00844E+07 4.30575
1.00897E+07 4.30637
1.00949E+07 4.30700
1.01002E+07 4.30763
1.01055E+07 4.30826
1.01108E+07 4.30889
1.01160E+07 4.30953
1.01213E+07 4.31017
1.01266E+07 4.31081
1.01319E+07 4.31145
1.01371E+07 4.31210
1.01424E+07 4.31274
1.01477E+07 4.31339
1.01529E+07 4.31404
1.01582E+07 4.31470
1.01635E+07 4.31535
1.01688E+07 4.31601
1.01740E+07 4.31668
1.01793E+07 4.31734
1.01846E+07 4.31801
1.01899E+07 4.31867
1.01951E+07 4.31935
1.02004E+07 4.32002
1.02057E+07 4.32069
1.02109E+07 4.32137
1.02162E+07 4.32205
1.02215E+07 4.32273
1.02268E+07 4.32342
1.02320E+07 4.32411
1.02373E+07 4.32480
1.02426E+07 4.32549
1.02479E+07 4.32618
1.02531E+07 4.32688
1.02584E+07 4.32758
1.02637E+07 4.32828
1.02690E+07 4.32898
1.02742E+07 4.32969
1.02795E+07 4.33040
1.02848E+07 4.33111
1.02901E+07 4.33182
1.02953E+07 4.33254
1.03006E+07 4.33326
1.03059E+07 4.33397
1.03111E+07 4.33470
1.03164E+07 4.33542
1.03217E+07 4.33615
1.03270E+07 4.33688
1.03322E+07 4.33761
1.03375E+07 4.33834
1.03375E+07 4.33834
1.03470E+07 4.33942
1.03564E+07 4.34049
1.03658E+07 4.34157
1.03752E+07 4.34265
1.03846E+07 4.34374
1.03940E+07 4.34483
1.04034E+07 4.34592
1.04128E+07 4.34702
1.04222E+07 4.34812
1.04316E+07 4.34922
1.04411E+07 4.35033
1.04505E+07 4.35144
1.04599E+07 4.35256
1.04693E+07 4.35367
1.04787E+07 4.35479
1.04881E+07 4.35592
1.04961E+07 4.35682
1.05041E+07 4.35772
1.05121E+07 4.35863
1.05201E+07 4.35954
1.05281E+07 4.36045
1.05361E+07 4.36137
1.05441E+07 4.36228
1.05521E+07 4.36320
1.05601E+07 4.36412
1.05681E+07 4.36505
1.05761E+07 4.36597
1.05841E+07 4.36690
1.05921E+07 4.36783
1.06001E+07 4.36877
1.06081E+07 4.36970
1.06161E+07 4.37064
1.06241E+07 4.37158
1.06321E+07 4.37252
1.06401E+07 4.37347
1.06481E+07 4.37442
1.06561E+07 4.37537
1.06641E+07 4.37632
1.06721E+07 4.37728
1.06801E+07 4.37823
1.06881E+07 4.37919
1.06961E+07 4.38015
1.07041E+07 4.38112
1.07121E+07 4.38209
1.07201E+07 4.38305
1.07281E+07 4.38403
1.07361E+07 4.38500
1.07441E+07 4.38598
1.07521E+07 4.38696
1.07601E+07 4.38794
1.07681E+07 4.38892
1.07761E+07 4.38991
1.07841E+07 4.39090
1.07921E+07 4.39189
1.08001E+07 4.39289
1.08080E+07 4.39388
1.08160E+07 4.39488
1.08240E+07 4.39588
1.08320E+07 4.39689
1.08400E+07 4.39789
1.08480E+07 4.39890
1.08560E+07 4.39991
1.08640E+07 4.40093
1.08720E+07 4.40194
1.08800E+07 4.40296
1.08880E+07 4.40398
1.08960E+07 4.40501
1.09040E+07 4.40604
1.09120E+07 4.40706
1.09200E+07 4.40809
1.09280E+07 4.40913
1.09360E+07 4.41017
1.09440E+07 4.41120
1.09520E+07 4.41225
1.09600E+07 4.41329
1.09680E+07 4.41434
1.09760E+07 4.41539
1.09840E+07 4.41644
1.09920E+07 4.41749
1.10000E+07 4.41855
1.10078E+07 4.41927
1.10156E+07 4.41998
1.10234E+07 4.42070
1.10313E+07 4.42143
1.10391E+07 4.42215
1.10469E+07 4.42288
1.10547E+07 4.42362
1.10625E+07 4.42435
1.10703E+07 4.42509
1.10781E+07 4.42583
1.10859E+07 4.42657
1.10938E+07 4.42732
1.11016E+07 4.42807
1.11094E+07 4.42882
1.11172E+07 4.42957
1.11250E+07 4.43033
1.11328E+07 4.43109
1.11406E+07 4.43185
1.11484E+07 4.43262
1.11563E+07 4.43339
1.11641E+07 4.43416
1.11719E+07 4.43493
1.11797E+07 4.43571
1.11875E+07 4.43649
1.11953E+07 4.43727
1.12031E+07 4.43806
1.12109E+07 4.43884
1.12188E+07 4.43964
1.12266E+07 4.44043
1.12344E+07 4.44123
1.12422E+07 4.44203
1.12500E+07 4.44283
1.12578E+07 4.44363
1.12656E+07 4.44444
1.12734E+07 4.44525
1.12813E+07 4.44606
1.12891E+07 4.44688
1.12969E+07 4.44770
1.13047E+07 4.44852
1.13125E+07 4.44934
1.13203E+07 4.45017
1.13281E+07 4.45100
1.13359E+07 4.45183
1.13438E+07 4.45267
1.13516E+07 4.45351
1.13594E+07 4.45435
1.13672E+07 4.45519
1.13750E+07 4.45604
1.13828E+07 4.45689
1.13906E+07 4.45774
1.13984E+07 4.45860
1.14063E+07 4.45946
1.14141E+07 4.46032
1.14219E+07 4.46118
1.14297E+07 4.46205
1.14375E+07 4.46292
1.14453E+07 4.46379
1.14531E+07 4.46466
1.14609E+07 4.46554
1.14688E+07 4.46642
1.14766E+07 4.46731
1.14844E+07 4.46819
1.14922E+07 4.46908
1.15000E+07 4.46998
1.15078E+07 4.47087
1.15156E+07 4.47177
1.15234E+07 4.47267
1.15313E+07 4.47357
1.15391E+07 4.47448
1.15469E+07 4.47539
1.15547E+07 4.47630
1.15625E+07 4.47722
1.15703E+07 4.47814
1.15781E+07 4.47906
1.15859E+07 4.47998
1.15938E+07 4.48091
1.16016E+07 4.48184
1.16094E+07 4.48277
1.16172E+07 4.48371
1.16250E+07 4.48465
1.16328E+07 4.48559
1.16406E+07 4.48653
1.16484E+07 4.48748
1.16563E+07 4.48843
1.16641E+07 4.48939
1.16719E+07 4.49034
1.16797E+07 4.49130
1.16875E+07 4.49226
1.16953E+07 4.49323
1.17031E+07 4.49420
1.17109E+07 4.49517
1.17188E+07 4.49615
1.17266E+07 4.49712
1.17344E+07 4.49811
1.17422E+07 4.49909
1.17500E+07 4.50008
1.17578E+07 4.50107
1.17656E+07 4.50206
1.17734E+07 4.50306
1.17813E+07 4.50406
1.17891E+07 4.50506
1.17969E+07 4.50607
1.18047E+07 4.50708
1.18125E+07 4.50809
1.18203E+07 4.50910
1.18281E+07 4.51012
1.18359E+07 4.51114
1.18438E+07 4.51217
1.18516E+07 4.51320
1.18594E+07 4.51423
1.18672E+07 4.51527
1.18750E+07 4.51631
1.18828E+07 4.51735
1.18906E+07 4.51839
1.18984E+07 4.51944
1.19063E+07 4.52050
1.19141E+07 4.52155
1.19219E+07 4.52261
1.19297E+07 4.52367
1.19375E+07 4.52474
1.19453E+07 4.52581
1.19531E+07 4.52688
1.19609E+07 4.52796
1.19688E+07 4.52904
1.19766E+07 4.53013
1.19844E+07 4.53121
1.19922E+07 4.53230
1.20000E+07 4.53340
1.20078E+07 4.53324
1.20156E+07 4.53309
1.20234E+07 4.53293
1.20313E+07 4.53278
1.20391E+07 4.53263
1.20469E+07 4.53249
1.20547E+07 4.53234
1.20625E+07 4.53220
1.20703E+07 4.53206
1.20781E+07 4.53192
1.20859E+07 4.53179
1.20938E+07 4.53166
1.21016E+07 4.53153
1.21094E+07 4.53140
1.21172E+07 4.53128
1.21250E+07 4.53115
1.21328E+07 4.53103
1.21406E+07 4.53092
1.21484E+07 4.53080
1.21563E+07 4.53069
1.21641E+07 4.53058
1.21719E+07 4.53047
1.21797E+07 4.53037
1.21875E+07 4.53026
1.21953E+07 4.53016
1.22031E+07 4.53007
1.22109E+07 4.52997
1.22188E+07 4.52988
1.22266E+07 4.52979
1.22344E+07 4.52970
1.22422E+07 4.52962
1.22500E+07 4.52953
1.22578E+07 4.52945
1.22656E+07 4.52938
1.22734E+07 4.52930
1.22813E+07 4.52923
1.22891E+07 4.52916
1.22969E+07 4.52909
1.23047E+07 4.52903
1.23125E+07 4.52897
1.23203E+07 4.52891
1.23281E+07 4.52885
1.23359E+07 4.52880
1.23438E+07 4.52875
1.23516E+07 4.52870
1.23594E+07 4.52865
1.23672E+07 4.52861
1.23750E+07 4.52857
1.23828E+07 4.52853
1.23906E+07 4.52850
1.23984E+07 4.52846
1.24063E+07 4.52843
1.24141E+07 4.52841
1.24219E+07 4.52838
1.24297E+07 4.52836
1.24375E+07 4.52835
1.24453E+07 4.52833
1.24531E+07 4.52832
1.24609E+07 4.52831
1.24688E+07 4.52830
1.24766E+07 4.52830
1.24844E+07 4.52830
1.24922E+07 4.52830
1.25000E+07 4.52831
1.25078E+07 4.52831
1.25156E+07 4.52832
1.25234E+07 4.52834
1.25313E+07 4.52836
1.25391E+07 4.52838
1.25469E+07 4.52840
1.25547E+07 4.52843
1.25625E+07 4.52846
1.25703E+07 4.52849
1.25781E+07 4.52852
1.25859E+07 4.52856
1.25938E+07 4.52860
1.26016E+07 4.52865
1.26094E+07 4.52870
1.26172E+07 4.52875
1.26250E+07 4.52880
1.26328E+07 4.52886
1.26406E+07 4.52892
1.26484E+07 4.52899
1.26563E+07 4.52906
1.26641E+07 4.52913
1.26719E+07 4.52920
1.26797E+07 4.52928
1.26875E+07 4.52936
1.26953E+07 4.52945
1.27031E+07 4.52954
1.27109E+07 4.52963
1.27188E+07 4.52972
1.27266E+07 4.52982
1.27344E+07 4.52993
1.27422E+07 4.53003
1.27500E+07 4.53014
1.27578E+07 4.53026
1.27656E+07 4.53037
1.27734E+07 4.53049
1.27813E+07 4.53062
1.27891E+07 4.53075
1.27969E+07 4.53088
1.28047E+07 4.53102
1.28125E+07 4.53116
1.28203E+07 4.53130
1.28281E+07 4.53145
1.28359E+07 4.53160
1.28438E+07 4.53176
1.28516E+07 4.53192
1.28594E+07 4.53208
1.28672E+07 4.53225
1.28750E+07 4.53242
1.28828E+07 4.53260
1.28906E+07 4.53278
1.28984E+07 4.53296
1.29063E+07 4.53315
1.29141E+07 4.53334
1.29219E+07 4.53354
1.29297E+07 4.53374
1.29375E+07 4.53395
1.29453E+07 4.53416
1.29531E+07 4.53438
1.29609E+07 4.53459
1.29688E+07 4.53482
1.29766E+07 4.53505
1.29844E+07 4.53528
1.29922E+07 4.53552
1.30000E+07 4.53576
1.30156E+07 4.53542
1.30313E+07 4.53508
1.30469E+07 4.53476
1.30625E+07 4.53444
1.30781E+07 4.53414
1.30938E+07 4.53384
1.31094E+07 4.53356
1.31250E+07 4.53328
1.31406E+07 4.53302
1.31563E+07 4.53276
1.31719E+07 4.53252
1.31875E+07 4.53229
1.32031E+07 4.53207
1.32188E+07 4.53185
1.32344E+07 4.53165
1.32500E+07 4.53147
1.32656E+07 4.53129
1.32813E+07 4.53112
1.32969E+07 4.53096
1.33125E+07 4.53082
1.33281E+07 4.53069
1.33438E+07 4.53057
1.33594E+07 4.53046
1.33750E+07 4.53036
1.33906E+07 4.53027
1.34063E+07 4.53020
1.34219E+07 4.53014
1.34375E+07 4.53009
1.34531E+07 4.53005
1.34688E+07 4.53003
1.34844E+07 4.53002
1.35000E+07 4.53002
1.35156E+07 4.53004
1.35313E+07 4.53007
1.35469E+07 4.53011
1.35625E+07 4.53017
1.35781E+07 4.53024
1.35938E+07 4.53032
1.36094E+07 4.53042
1.36250E+07 4.53053
1.36406E+07 4.53065
1.36563E+07 4.53080
1.36719E+07 4.53095
1.36875E+07 4.53112
1.37031E+07 4.53131
1.37188E+07 4.53151
1.37344E+07 4.53172
1.37500E+07 4.53195
1.37656E+07 4.53220
1.37813E+07 4.53246
1.37969E+07 4.53275
1.38125E+07 4.53304
1.38281E+07 4.53335
1.38438E+07 4.53368
1.38594E+07 4.53403
1.38750E+07 4.53439
1.38906E+07 4.53478
1.39063E+07 4.53517
1.39219E+07 4.53559
1.39375E+07 4.53603
1.39531E+07 4.53648
1.39688E+07 4.53696
1.39844E+07 4.53745
1.40000E+07 4.53796
1.40313E+07 4.53592
1.40625E+07 4.53393
1.40938E+07 4.53198
1.41250E+07 4.53008
1.41563E+07 4.52822
1.41875E+07 4.52641
1.42188E+07 4.52464
1.42500E+07 4.52292
1.42813E+07 4.52124
1.43125E+07 4.51962
1.43438E+07 4.51804
1.43750E+07 4.51651
1.44063E+07 4.51504
1.44375E+07 4.51362
1.44688E+07 4.51225
1.45000E+07 4.51093
1.45313E+07 4.50901
1.45625E+07 4.50713
1.45938E+07 4.50528
1.46250E+07 4.50348
1.46563E+07 4.50171
1.46875E+07 4.49998
1.47188E+07 4.49830
1.47500E+07 4.49665
1.47813E+07 4.49504
1.48125E+07 4.49347
1.48438E+07 4.49195
1.48750E+07 4.49047
1.49063E+07 4.48903
1.49375E+07 4.48764
1.49688E+07 4.48629
1.50000E+07 4.48498
1.50195E+07 4.48364
1.50390E+07 4.48230
1.50585E+07 4.48098
1.50780E+07 4.47967
1.50975E+07 4.47837
1.51170E+07 4.47709
1.51365E+07 4.47581
1.51560E+07 4.47455
1.51755E+07 4.47330
1.51950E+07 4.47206
1.52145E+07 4.47084
1.52340E+07 4.46963
1.52535E+07 4.46843
1.52730E+07 4.46724
1.52925E+07 4.46606
1.53120E+07 4.46490
1.53315E+07 4.46375
1.53510E+07 4.46261
1.53705E+07 4.46149
1.53900E+07 4.46037
1.54095E+07 4.45928
1.54290E+07 4.45819
1.54485E+07 4.45712
1.54680E+07 4.45606
1.54875E+07 4.45501
1.55070E+07 4.45398
1.55265E+07 4.45296
1.55460E+07 4.45195
1.55655E+07 4.45096
1.55850E+07 4.44998
1.56045E+07 4.44901
1.56240E+07 4.44806
1.56475E+07 4.44662
1.56710E+07 4.44519
1.56945E+07 4.44377
1.57180E+07 4.44237
1.57415E+07 4.44098
1.57650E+07 4.43961
1.57885E+07 4.43825
1.58120E+07 4.43690
1.58355E+07 4.43557
1.58590E+07 4.43426
1.58825E+07 4.43296
1.59060E+07 4.43167
1.59295E+07 4.43040
1.59530E+07 4.42914
1.59765E+07 4.42790
1.60000E+07 4.42667
1.60313E+07 4.42484
1.60625E+07 4.42303
1.60938E+07 4.42124
1.61250E+07 4.41947
1.61563E+07 4.41772
1.61875E+07 4.41599
1.62188E+07 4.41428
1.62500E+07 4.41259
1.62813E+07 4.41093
1.63125E+07 4.40929
1.63438E+07 4.40766
1.63750E+07 4.40606
1.64063E+07 4.40448
1.64375E+07 4.40292
1.64688E+07 4.40139
1.65000E+07 4.39987
1.65313E+07 4.39838
1.65625E+07 4.39691
1.65938E+07 4.39547
1.66250E+07 4.39404
1.66563E+07 4.39264
1.66875E+07 4.39126
1.67188E+07 4.38990
1.67500E+07 4.38857
1.67813E+07 4.38726
1.68125E+07 4.38597
1.68438E+07 4.38471
1.68750E+07 4.38347
1.69063E+07 4.38225
1.69375E+07 4.38106
1.69688E+07 4.37989
1.70000E+07 4.37875
1.70106E+07 4.37823
1.70213E+07 4.37771
1.70319E+07 4.37720
1.70426E+07 4.37668
1.70532E+07 4.37617
1.70638E+07 4.37566
1.70745E+07 4.37516
1.70851E+07 4.37465
1.70957E+07 4.37415
1.71064E+07 4.37365
1.71170E+07 4.37315
1.71277E+07 4.37266
1.71383E+07 4.37216
1.71489E+07 4.37167
1.71596E+07 4.37118
1.71702E+07 4.37069
1.71808E+07 4.37021
1.71915E+07 4.36972
1.72021E+07 4.36924
1.72128E+07 4.36876
1.72234E+07 4.36829
1.72340E+07 4.36781
1.72447E+07 4.36734
1.72553E+07 4.36687
1.72659E+07 4.36640
1.72766E+07 4.36594
1.72872E+07 4.36547
1.72979E+07 4.36501
1.73085E+07 4.36455
1.73191E+07 4.36410
1.73298E+07 4.36364
1.73404E+07 4.36319
1.73507E+07 4.36268
1.73610E+07 4.36218
1.73713E+07 4.36167
1.73816E+07 4.36117
1.73919E+07 4.36067
1.74022E+07 4.36017
1.74126E+07 4.35968
1.74229E+07 4.35918
1.74332E+07 4.35869
1.74435E+07 4.35819
1.74538E+07 4.35770
1.74641E+07 4.35721
1.74744E+07 4.35672
1.74847E+07 4.35624
1.74950E+07 4.35575
1.75053E+07 4.35527
1.75156E+07 4.35479
1.75259E+07 4.35431
1.75362E+07 4.35383
1.75465E+07 4.35336
1.75568E+07 4.35288
1.75671E+07 4.35241
1.75775E+07 4.35194
1.75878E+07 4.35147
1.75981E+07 4.35100
1.76084E+07 4.35053
1.76187E+07 4.35007
1.76290E+07 4.34960
1.76393E+07 4.34914
1.76496E+07 4.34868
1.76599E+07 4.34822
1.76702E+07 4.34777
1.76805E+07 4.34731
1.76908E+07 4.34686
1.77011E+07 4.34641
1.77114E+07 4.34596
1.77217E+07 4.34551
1.77320E+07 4.34506
1.77424E+07 4.34462
1.77527E+07 4.34417
1.77630E+07 4.34373
1.77733E+07 4.34329
1.77836E+07 4.34285
1.77939E+07 4.34242
1.78042E+07 4.34198
1.78145E+07 4.34155
1.78248E+07 4.34112
1.78351E+07 4.34069
1.78454E+07 4.34026
1.78557E+07 4.33983
1.78660E+07 4.33941
1.78763E+07 4.33898
1.78866E+07 4.33856
1.78969E+07 4.33814
1.79073E+07 4.33772
1.79176E+07 4.33731
1.79279E+07 4.33689
1.79382E+07 4.33648
1.79485E+07 4.33607
1.79588E+07 4.33566
1.79691E+07 4.33525
1.79794E+07 4.33484
1.79897E+07 4.33444
1.80000E+07 4.33404
1.80154E+07 4.33341
1.80307E+07 4.33278
1.80461E+07 4.33216
1.80615E+07 4.33154
1.80769E+07 4.33093
1.80922E+07 4.33032
1.81076E+07 4.32971
1.81230E+07 4.32910
1.81383E+07 4.32850
1.81537E+07 4.32790
1.81691E+07 4.32731
1.81844E+07 4.32672
1.81998E+07 4.32613
1.82152E+07 4.32555
1.82305E+07 4.32497
1.82459E+07 4.32439
1.82613E+07 4.32382
1.82766E+07 4.32325
1.82920E+07 4.32268
1.83074E+07 4.32212
1.83228E+07 4.32156
1.83381E+07 4.32100
1.83535E+07 4.32045
1.83689E+07 4.31990
1.83842E+07 4.31935
1.83996E+07 4.31881
1.84150E+07 4.31828
1.84303E+07 4.31774
1.84457E+07 4.31721
1.84611E+07 4.31668
1.84764E+07 4.31616
1.84918E+07 4.31564
1.85077E+07 4.31501
1.85236E+07 4.31438
1.85395E+07 4.31375
1.85553E+07 4.31313
1.85712E+07 4.31251
1.85871E+07 4.31190
1.86030E+07 4.31129
1.86189E+07 4.31068
1.86347E+07 4.31008
1.86506E+07 4.30948
1.86665E+07 4.30888
1.86824E+07 4.30829
1.86983E+07 4.30770
1.87141E+07 4.30711
1.87300E+07 4.30653
1.87459E+07 4.30595
1.87618E+07 4.30538
1.87777E+07 4.30481
1.87936E+07 4.30424
1.88094E+07 4.30368
1.88253E+07 4.30312
1.88412E+07 4.30256
1.88571E+07 4.30201
1.88730E+07 4.30146
1.88888E+07 4.30092
1.89047E+07 4.30038
1.89206E+07 4.29984
1.89365E+07 4.29931
1.89524E+07 4.29878
1.89682E+07 4.29826
1.89841E+07 4.29773
1.90000E+07 4.29722
1.90156E+07 4.29656
1.90313E+07 4.29591
1.90469E+07 4.29526
1.90625E+07 4.29462
1.90781E+07 4.29397
1.90938E+07 4.29334
1.91094E+07 4.29270
1.91250E+07 4.29207
1.91406E+07 4.29145
1.91563E+07 4.29082
1.91719E+07 4.29020
1.91875E+07 4.28959
1.92031E+07 4.28897
1.92188E+07 4.28836
1.92344E+07 4.28776
1.92500E+07 4.28716
1.92656E+07 4.28656
1.92813E+07 4.28596
1.92969E+07 4.28537
1.93125E+07 4.28478
1.93281E+07 4.28420
1.93438E+07 4.28362
1.93594E+07 4.28304
1.93750E+07 4.28247
1.93906E+07 4.28190
1.94063E+07 4.28133
1.94219E+07 4.28077
1.94375E+07 4.28021
1.94531E+07 4.27966
1.94688E+07 4.27910
1.94844E+07 4.27856
1.95000E+07 4.27801
1.95156E+07 4.27747
1.95313E+07 4.27693
1.95469E+07 4.27640
1.95625E+07 4.27587
1.95781E+07 4.27535
1.95938E+07 4.27482
1.96094E+07 4.27430
1.96250E+07 4.27379
1.96406E+07 4.27328
1.96563E+07 4.27277
1.96719E+07 4.27227
1.96875E+07 4.27177
1.97031E+07 4.27127
1.97188E+07 4.27078
1.97344E+07 4.27029
1.97500E+07 4.26981
1.97656E+07 4.26932
1.97813E+07 4.26885
1.97969E+07 4.26837
1.98125E+07 4.26790
1.98281E+07 4.26744
1.98438E+07 4.26698
1.98594E+07 4.26652
1.98750E+07 4.26606
1.98906E+07 4.26561
1.99063E+07 4.26517
1.99219E+07 4.26472
1.99375E+07 4.26429
1.99531E+07 4.26385
1.99688E+07 4.26342
1.99844E+07 4.26299
2.00000E+07 4.26257
