Ru-98(n,g) ENDFB-8.0
Energy(eV) XS(b)
1.00000E-05 402.427
1.03125E-05 396.282
1.06250E-05 390.411
1.09375E-05 384.793
1.12500E-05 379.411
1.15625E-05 374.249
1.18750E-05 369.292
1.21875E-05 364.527
1.25000E-05 359.941
1.28125E-05 355.525
1.31250E-05 351.267
1.34375E-05 347.158
1.37500E-05 343.191
1.43750E-05 335.647
1.50000E-05 328.580
1.56250E-05 321.941
1.62500E-05 315.689
1.68750E-05 309.788
1.75000E-05 304.206
1.81250E-05 298.915
1.87500E-05 293.891
1.93750E-05 289.112
2.00000E-05 284.559
2.09375E-05 278.115
2.18750E-05 272.090
2.28125E-05 266.440
2.37500E-05 261.129
2.46875E-05 256.123
2.56250E-05 251.394
2.65625E-05 246.918
2.75000E-05 242.672
2.84375E-05 238.639
2.93750E-05 234.800
3.03125E-05 231.140
3.12500E-05 227.647
3.21875E-05 224.307
3.31250E-05 221.110
3.40625E-05 218.046
3.50000E-05 215.106
3.59375E-05 212.282
3.68750E-05 209.566
3.78125E-05 206.952
3.87500E-05 204.433
3.96875E-05 202.004
4.06250E-05 199.659
4.25000E-05 195.206
4.43750E-05 191.037
4.62500E-05 187.125
4.81250E-05 183.443
5.00000E-05 179.971
5.15625E-05 177.223
5.31250E-05 174.597
5.46875E-05 172.085
5.62500E-05 169.678
5.78125E-05 167.369
5.93750E-05 165.152
6.09375E-05 163.021
6.25000E-05 160.971
6.40625E-05 158.995
6.56250E-05 157.091
6.71875E-05 155.254
6.87500E-05 153.479
7.18750E-05 150.106
7.50000E-05 146.945
7.81250E-05 143.976
8.12500E-05 141.181
8.43750E-05 138.541
8.75000E-05 136.045
9.06250E-05 133.679
9.37500E-05 131.432
9.68750E-05 129.295
0.000100000 127.258
0.000103125 125.315
0.000106250 123.459
0.000109375 121.682
0.000112500 119.980
0.000115625 118.348
0.000118750 116.780
0.000121875 115.273
0.000125000 113.823
0.000128125 112.427
0.000131250 111.080
0.000134375 109.781
0.000137500 108.526
0.000143750 106.141
0.000150000 103.906
0.000156250 101.807
0.000162500 99.8296
0.000168750 97.9635
0.000175000 96.1982
0.000181250 94.5251
0.000187500 92.9363
0.000193750 91.4250
0.000200000 89.9852
0.000209375 87.9475
0.000218750 86.0423
0.000228125 84.2557
0.000237500 82.5761
0.000246875 80.9930
0.000256250 79.4976
0.000265625 78.0821
0.000275000 76.7396
0.000284375 75.4641
0.000293750 74.2501
0.000303125 73.0929
0.000312500 71.9881
0.000321875 70.9320
0.000331250 69.9210
0.000340625 68.9521
0.000350000 68.0224
0.000359375 67.1293
0.000368750 66.2704
0.000378125 65.4437
0.000387500 64.6472
0.000396875 63.8791
0.000406250 63.1378
0.000425000 61.7293
0.000443750 60.4111
0.000462500 59.1739
0.000481250 58.0097
0.000500000 56.9116
0.000515625 56.0427
0.000531250 55.2124
0.000546875 54.4179
0.000562500 53.6568
0.000578125 52.9267
0.000593750 52.2257
0.000609375 51.5518
0.000625000 50.9033
0.000640625 50.2787
0.000656250 49.6765
0.000671875 49.0955
0.000687500 48.5344
0.000718750 47.4676
0.000750000 46.4682
0.000781250 45.5293
0.000812500 44.6452
0.000843750 43.8106
0.000875000 43.0212
0.000906250 42.2729
0.000937500 41.5624
0.000968750 40.8866
0.00100000 40.2426
0.00103125 39.6282
0.00106250 39.0411
0.00109375 38.4793
0.00112500 37.9411
0.00115625 37.4249
0.00118750 36.9292
0.00121875 36.4527
0.00125000 35.9941
0.00128125 35.5525
0.00131250 35.1267
0.00134375 34.7158
0.00137500 34.3191
0.00143750 33.5647
0.00150000 32.8580
0.00156250 32.1941
0.00162500 31.5690
0.00168750 30.9788
0.00175000 30.4206
0.00181250 29.8915
0.00187500 29.3891
0.00193750 28.9112
0.00200000 28.4558
0.00209375 27.8115
0.00218750 27.2090
0.00228125 26.6440
0.00237500 26.1128
0.00246875 25.6122
0.00256250 25.1393
0.00265625 24.6917
0.00275000 24.2671
0.00284375 23.8638
0.00293750 23.4799
0.00303125 23.1139
0.00312500 22.7646
0.00321875 22.4306
0.00331250 22.1109
0.00340625 21.8045
0.00350000 21.5105
0.00359375 21.2280
0.00368750 20.9564
0.00378125 20.6950
0.00387500 20.4431
0.00396875 20.2002
0.00406250 19.9658
0.00425000 19.5204
0.00443750 19.1035
0.00462500 18.7123
0.00481250 18.3441
0.00500000 17.9969
0.00515625 17.7221
0.00531250 17.4596
0.00546875 17.2083
0.00562500 16.9676
0.00578125 16.7368
0.00593750 16.5151
0.00609375 16.3020
0.00625000 16.0969
0.00640625 15.8994
0.00656250 15.7090
0.00671875 15.5253
0.00687500 15.3478
0.00718750 15.0105
0.00750000 14.6944
0.00781250 14.3975
0.00812500 14.1179
0.00843750 13.8540
0.00875000 13.6044
0.00906250 13.3677
0.00937500 13.1430
0.00968750 12.9293
0.0100000 12.7257
0.0103125 12.5313
0.0106250 12.3457
0.0109375 12.1680
0.0112500 11.9978
0.0115625 11.8346
0.0118750 11.6779
0.0121875 11.5272
0.0125000 11.3822
0.0128125 11.2425
0.0131250 11.1079
0.0134375 10.9780
0.0137500 10.8525
0.0143750 10.6140
0.0150000 10.3906
0.0156250 10.1806
0.0162500 9.98293
0.0168750 9.79630
0.0175000 9.61976
0.0181250 9.45243
0.0187500 9.29353
0.0193750 9.14238
0.0200000 8.99838
0.0206625 8.85292
0.0213250 8.71430
0.0219875 8.58199
0.0226500 8.45553
0.0233125 8.33450
0.0239750 8.21853
0.0246375 8.10726
0.0253000 8.00040
0.0264578 7.82338
0.0276156 7.65763
0.0287734 7.50199
0.0299313 7.35549
0.0310891 7.21725
0.0322469 7.08653
0.0334047 6.96267
0.0345625 6.84508
0.0355274 6.75151
0.0364922 6.66166
0.0374570 6.57530
0.0384219 6.49220
0.0393867 6.41218
0.0403516 6.33503
0.0413164 6.26060
0.0422813 6.18873
0.0442109 6.05212
0.0461406 5.92416
0.0480703 5.80400
0.0500000 5.69086
0.0515625 5.60394
0.0531250 5.52089
0.0546875 5.44143
0.0562500 5.36530
0.0578125 5.29229
0.0593750 5.22218
0.0609375 5.15480
0.0625000 5.08996
0.0640625 5.02752
0.0656250 4.96733
0.0671875 4.90926
0.0687500 4.85318
0.0718750 4.74655
0.0750000 4.64663
0.0781250 4.55274
0.0812500 4.46431
0.0843750 4.38082
0.0875000 4.30185
0.0906250 4.22700
0.0937500 4.15593
0.0968750 4.08832
0.100000 4.02391
0.103125 3.96246
0.106250 3.90373
0.109375 3.84754
0.112500 3.79371
0.115625 3.74208
0.118750 3.69250
0.121875 3.64485
0.125000 3.59900
0.128125 3.55485
0.131250 3.51230
0.134375 3.47125
0.137500 3.43161
0.143750 3.35623
0.150000 3.28558
0.156250 3.21918
0.162500 3.15664
0.168750 3.09761
0.175000 3.04177
0.181250 2.98885
0.187500 2.93861
0.193750 2.89084
0.200000 2.84534
0.209375 2.78095
0.218750 2.72070
0.228125 2.66419
0.237500 2.61105
0.246875 2.56097
0.256250 2.51366
0.265625 2.46889
0.275000 2.42642
0.284375 2.38608
0.293750 2.34768
0.303125 2.31108
0.312500 2.27613
0.321875 2.24273
0.331250 2.21076
0.340625 2.18011
0.350000 2.15071
0.359375 2.12246
0.368750 2.09530
0.378125 2.06916
0.387500 2.04399
0.396875 2.01973
0.406250 1.99633
0.425000 1.95185
0.443750 1.91016
0.462500 1.87103
0.500000 1.79959
0.531250 1.74595
0.562500 1.69672
0.593750 1.65142
0.625000 1.60958
0.687500 1.53462
0.750000 1.46925
0.812500 1.41159
0.875000 1.36036
0.937500 1.31433
1.00000 1.27256
1.06250 1.23452
1.12500 1.19971
1.18750 1.16769
1.25000 1.13810
1.37500 1.08511
1.50000 1.03888
1.62500 0.998108
1.75000 0.961867
1.87500 0.929311
2.00000 0.899744
2.18750 0.860264
2.37500 0.825592
2.56250 0.794801
2.75000 0.767267
2.93750 0.742413
3.12500 0.719781
3.31250 0.699100
3.50000 0.680105
3.87500 0.646342
4.25000 0.617155
4.62500 0.591595
5.00000 0.568990
5.31250 0.552015
5.62500 0.536454
5.93750 0.522139
6.25000 0.508912
6.87500 0.485219
7.50000 0.464554
8.12500 0.446323
8.75000 0.430099
9.37500 0.415527
10.0000 0.402326
10.6250 0.390308
11.2500 0.379307
11.8750 0.369186
12.5000 0.359835
13.7500 0.343083
15.0000 0.328473
16.2500 0.315583
17.5000 0.304109
18.7500 0.293802
20.0000 0.284466
21.8750 0.271995
23.7500 0.261035
25.6250 0.251301
27.5000 0.242586
29.3750 0.234719
31.2500 0.227566
33.1250 0.221030
35.0000 0.215026
38.7500 0.204355
42.5000 0.195129
46.2500 0.187049
50.0000 0.179899
53.1250 0.174528
56.2500 0.169610
59.3750 0.165085
62.5000 0.160904
68.7500 0.153414
75.0000 0.146882
81.2500 0.141118
87.5000 0.135986
93.7500 0.131376
100.000 0.127203
105.000 0.124136
110.000 0.121281
115.000 0.118615
120.000 0.116117
125.000 0.113771
130.000 0.111561
135.000 0.109475
137.500 0.108486
138.750 0.108004
138.906 0.108083
138.984 0.108392
139.063 0.109345
139.102 0.110337
139.141 0.111937
139.180 0.114459
139.219 0.118334
139.258 0.124195
139.277 0.128103
139.297 0.132827
139.317 0.138541
139.336 0.145345
139.356 0.153443
139.375 0.163032
139.395 0.174390
139.414 0.187638
139.434 0.203168
139.453 0.221097
139.473 0.241899
139.492 0.265666
139.512 0.292811
139.531 0.323654
139.551 0.358710
139.570 0.397946
139.590 0.441846
139.609 0.490715
139.629 0.545128
139.649 0.604789
139.658 0.636926
139.668 0.670187
139.678 0.705280
139.688 0.741509
139.707 0.819305
139.727 0.902871
139.746 0.992614
139.766 1.08850
139.785 1.19097
139.805 1.29879
139.824 1.41224
139.844 1.53100
139.863 1.65534
139.883 1.78351
139.922 2.05116
139.961 2.33054
140.000 2.61479
140.000 5.12132
150.000 4.86218
160.000 4.63181
170.000 4.42536
177.500 4.28430
185.000 4.15331
200.000 3.91733
212.500 3.74429
225.000 3.58815
237.500 3.44645
250.000 3.31720
262.500 3.20005
275.000 3.09221
287.500 2.99256
300.000 2.90016
312.500 2.81534
325.000 2.73619
350.000 2.59266
375.000 2.46769
400.000 2.35624
425.000 2.25856
450.000 2.17017
475.000 2.08975
500.000 2.01621
525.000 1.95099
550.000 1.89077
575.000 1.83497
600.000 1.78309
630.000 1.72768
660.000 1.67645
690.000 1.62892
720.000 1.58468
760.000 1.53220
800.000 1.48403
850.000 1.43169
900.000 1.38403
950.000 1.34041
1000.00 1.30030
1062.50 1.25823
1125.00 1.21980
1187.50 1.18454
1250.00 1.15203
1375.00 1.09834
1500.00 1.05152
1600.00 1.01945
1700.00 0.990218
1850.00 0.952835
2000.00 0.919620
2125.00 0.896036
2250.00 0.874355
2500.00 0.835756
2750.00 0.803772
3000.00 0.775643
3250.00 0.751533
3500.00 0.729879
3750.00 0.710311
4000.00 0.692482
4500.00 0.660655
5000.00 0.633426
5500.00 0.608863
6000.00 0.587271
6500.00 0.567390
7000.00 0.549584
7500.00 0.532672
8000.00 0.517322
8500.00 0.502460
9000.00 0.488838
10000.0 0.464690
10625.0 0.450331
11250.0 0.437198
11875.0 0.425129
12500.0 0.413987
13750.0 0.392693
15000.0 0.374211
16000.0 0.360516
17000.0 0.348109
18500.0 0.330867
20000.0 0.315728
21250.0 0.303929
22500.0 0.293209
23750.0 0.283416
25000.0 0.274428
26250.0 0.265858
27500.0 0.257936
28750.0 0.250586
30000.0 0.243746
32500.0 0.231145
35000.0 0.220060
37500.0 0.210129
40000.0 0.201244
42500.0 0.193245
45000.0 0.185994
47500.0 0.179387
50000.0 0.173335
52500.0 0.167945
55000.0 0.162962
57500.0 0.158338
60000.0 0.154035
65000.0 0.146455
70000.0 0.139770
75000.0 0.134088
80000.0 0.128982
85000.0 0.125174
90000.0 0.121686
94999.9 0.118477
99999.9 0.115510
100000 0.115152
112500 0.110037
125000 0.105655
137500 0.101841
150000 0.0984790
175000 0.0955242
200000 0.0930364
250000 0.0920363
300000 0.0931973
350000 0.0968310
400000 0.100093
450000 0.103061
500000 0.105791
519890 0.107459
539780 0.109090
559670 0.110685
579561 0.112246
599451 0.113776
619341 0.115275
639231 0.116746
659121 0.118190
661676 0.115874
664231 0.113612
669341 0.109245
674451 0.105077
679561 0.101097
689780 0.0936657
700000 0.0868779
712500 0.0850025
725000 0.0831991
737500 0.0814639
750000 0.0797931
762500 0.0781833
775000 0.0766314
787500 0.0751345
800000 0.0736896
812500 0.0734877
825000 0.0732894
837500 0.0730947
850000 0.0729033
862500 0.0727152
875000 0.0725303
887500 0.0723484
900000 0.0721696
912500 0.0723907
925000 0.0726095
937500 0.0728260
950000 0.0730402
962500 0.0732523
975000 0.0734622
987500 0.0736701
1.00000E+06 0.0738759
1.01994E+06 0.0746636
1.01994E+06 0.0746637
1.04870E+06 0.0757872
1.07746E+06 0.0768966
1.10621E+06 0.0779923
1.13497E+06 0.0790750
1.16373E+06 0.0801450
1.19249E+06 0.0812029
1.22124E+06 0.0822490
1.25000E+06 0.0832838
1.27118E+06 0.0843685
1.29236E+06 0.0854490
1.31353E+06 0.0865255
1.33471E+06 0.0875979
1.33471E+06 0.0875980
1.33956E+06 0.0877586
1.34440E+06 0.0879189
1.35408E+06 0.0882387
1.36377E+06 0.0885573
1.37346E+06 0.0888749
1.39283E+06 0.0895067
1.41220E+06 0.0901341
1.41220E+06 0.0901338
1.41644E+06 0.0894829
1.42069E+06 0.0888387
1.42917E+06 0.0875698
1.42918E+06 0.0875690
1.43360E+06 0.0868290
1.43803E+06 0.0860976
1.44688E+06 0.0846600
1.45573E+06 0.0832544
1.46459E+06 0.0818806
1.48229E+06 0.0792241
1.50000E+06 0.0766840
1.53125E+06 0.0763767
1.56250E+06 0.0760767
1.59375E+06 0.0757839
1.62500E+06 0.0754978
1.65625E+06 0.0752182
1.68750E+06 0.0749449
1.71875E+06 0.0746775
1.75000E+06 0.0744159
1.78286E+06 0.0751545
1.81572E+06 0.0758868
1.82070E+06 0.0756946
1.82567E+06 0.0755034
1.83562E+06 0.0751239
1.84076E+06 0.0750545
1.84589E+06 0.0749854
1.85617E+06 0.0748479
1.87672E+06 0.0745759
1.89726E+06 0.0743078
1.91781E+06 0.0740436
1.93836E+06 0.0737831
1.95891E+06 0.0735263
1.97945E+06 0.0732730
2.00000E+06 0.0730232
2.00213E+06 0.0730442
2.00426E+06 0.0730652
2.00638E+06 0.0730862
2.00851E+06 0.0731071
2.01064E+06 0.0731281
2.01277E+06 0.0731490
2.01489E+06 0.0731699
2.01702E+06 0.0731908
2.01915E+06 0.0732116
2.02128E+06 0.0732325
2.02340E+06 0.0732533
2.02553E+06 0.0732742
2.02766E+06 0.0732950
2.02979E+06 0.0733158
2.03191E+06 0.0733365
2.03404E+06 0.0733573
2.03404E+06 0.0733573
2.03735E+06 0.0733683
2.04065E+06 0.0733793
2.04396E+06 0.0733903
2.04726E+06 0.0734012
2.05056E+06 0.0734121
2.05387E+06 0.0734231
2.05717E+06 0.0734339
2.06048E+06 0.0734448
2.06378E+06 0.0734557
2.06708E+06 0.0734666
2.07039E+06 0.0734774
2.07369E+06 0.0734882
2.07700E+06 0.0734990
2.08030E+06 0.0735098
2.08360E+06 0.0735206
2.08691E+06 0.0735313
2.09021E+06 0.0735421
2.09352E+06 0.0735528
2.09682E+06 0.0735635
2.10012E+06 0.0735742
2.10343E+06 0.0735849
2.10673E+06 0.0735956
2.11004E+06 0.0736062
2.11334E+06 0.0736169
2.11664E+06 0.0736275
2.11995E+06 0.0736381
2.12325E+06 0.0736487
2.12656E+06 0.0736593
2.12986E+06 0.0736698
2.13316E+06 0.0736804
2.13647E+06 0.0736909
2.13977E+06 0.0737014
2.14308E+06 0.0737119
2.14638E+06 0.0737224
2.14968E+06 0.0737329
2.15299E+06 0.0737433
2.15629E+06 0.0737538
2.15960E+06 0.0737642
2.16290E+06 0.0737746
2.16620E+06 0.0737850
2.16951E+06 0.0737954
2.17281E+06 0.0738058
2.17612E+06 0.0738161
2.17942E+06 0.0738265
2.18272E+06 0.0738368
2.18603E+06 0.0738471
2.18933E+06 0.0738574
2.19264E+06 0.0738677
2.19594E+06 0.0738780
2.19924E+06 0.0738882
2.20255E+06 0.0738985
2.20585E+06 0.0739087
2.20916E+06 0.0739189
2.21246E+06 0.0739291
2.21576E+06 0.0739393
2.21907E+06 0.0739495
2.22237E+06 0.0739597
2.22568E+06 0.0739698
2.22898E+06 0.0739799
2.23228E+06 0.0739901
2.23559E+06 0.0740002
2.23889E+06 0.0740103
2.24220E+06 0.0740203
2.24550E+06 0.0740304
2.24878E+06 0.0740864
2.25207E+06 0.0741422
2.25535E+06 0.0741981
2.25863E+06 0.0742539
2.25863E+06 0.0742540
2.26260E+06 0.0743214
2.26657E+06 0.0743887
2.27053E+06 0.0744560
2.27450E+06 0.0745232
2.27846E+06 0.0745904
2.28243E+06 0.0746575
2.28640E+06 0.0747245
2.29036E+06 0.0747915
2.29491E+06 0.0746900
2.29945E+06 0.0745889
2.30400E+06 0.0744881
2.30854E+06 0.0743876
2.30854E+06 0.0743876
2.31328E+06 0.0743802
2.31801E+06 0.0743728
2.32275E+06 0.0743654
2.32748E+06 0.0743580
2.33222E+06 0.0743506
2.33696E+06 0.0743433
2.34169E+06 0.0743359
2.34643E+06 0.0743286
2.35116E+06 0.0743213
2.35590E+06 0.0743140
2.36064E+06 0.0743067
2.36537E+06 0.0742995
2.37011E+06 0.0742922
2.37484E+06 0.0742850
2.37958E+06 0.0742778
2.38432E+06 0.0742706
2.38905E+06 0.0742634
2.39379E+06 0.0742562
2.39852E+06 0.0742491
2.40326E+06 0.0742419
2.40800E+06 0.0742348
2.41273E+06 0.0742277
2.41747E+06 0.0742206
2.42220E+06 0.0742135
2.42694E+06 0.0742065
2.43168E+06 0.0741994
2.43641E+06 0.0741924
2.44115E+06 0.0741854
2.44588E+06 0.0741783
2.45062E+06 0.0741713
2.45536E+06 0.0741644
2.46009E+06 0.0741574
2.46362E+06 0.0741046
2.46716E+06 0.0740519
2.47069E+06 0.0739993
2.47422E+06 0.0739468
2.47776E+06 0.0738945
2.48129E+06 0.0738422
2.48482E+06 0.0737901
2.48835E+06 0.0737380
2.49189E+06 0.0736861
2.49542E+06 0.0736343
2.49895E+06 0.0735826
2.50248E+06 0.0735310
2.50602E+06 0.0734795
2.50955E+06 0.0734282
2.51308E+06 0.0733769
2.51662E+06 0.0733258
2.52015E+06 0.0732747
2.52368E+06 0.0732238
2.52721E+06 0.0731729
2.53075E+06 0.0731222
2.53428E+06 0.0730716
2.53781E+06 0.0730210
2.54135E+06 0.0729706
2.54488E+06 0.0729203
2.54841E+06 0.0728701
2.55194E+06 0.0728200
2.55548E+06 0.0727700
2.55901E+06 0.0727201
2.56254E+06 0.0726704
2.56608E+06 0.0726207
2.56961E+06 0.0725711
2.57314E+06 0.0725216
2.57662E+06 0.0725027
2.58009E+06 0.0724838
2.58357E+06 0.0724649
2.58704E+06 0.0724461
2.59052E+06 0.0724273
2.59400E+06 0.0724086
2.59747E+06 0.0723898
2.60095E+06 0.0723711
2.60442E+06 0.0723524
2.60790E+06 0.0723338
2.61138E+06 0.0723152
2.61485E+06 0.0722966
2.61833E+06 0.0722780
2.62180E+06 0.0722595
2.62528E+06 0.0722410
2.62876E+06 0.0722225
2.63223E+06 0.0722041
2.63571E+06 0.0721857
2.63918E+06 0.0721673
2.64266E+06 0.0721489
2.64614E+06 0.0721306
2.64961E+06 0.0721123
2.65309E+06 0.0720940
2.65656E+06 0.0720758
2.66004E+06 0.0720576
2.66352E+06 0.0720394
2.66699E+06 0.0720213
2.67047E+06 0.0720031
2.67394E+06 0.0719850
2.67742E+06 0.0719670
2.68090E+06 0.0719489
2.68437E+06 0.0719309
2.68438E+06 0.0719309
2.68791E+06 0.0719241
2.69145E+06 0.0719174
2.69498E+06 0.0719106
2.69852E+06 0.0719039
2.70323E+06 0.0718579
2.70794E+06 0.0718120
2.71265E+06 0.0717662
2.71736E+06 0.0717205
2.72207E+06 0.0716749
2.72678E+06 0.0716294
2.73150E+06 0.0715840
2.73621E+06 0.0715388
2.74092E+06 0.0714936
2.74563E+06 0.0714486
2.75034E+06 0.0714036
2.75505E+06 0.0713588
2.75976E+06 0.0713141
2.76447E+06 0.0712694
2.76918E+06 0.0712249
2.77389E+06 0.0711805
2.77860E+06 0.0711362
2.78331E+06 0.0710919
2.78802E+06 0.0710478
2.79273E+06 0.0710038
2.79744E+06 0.0709599
2.80215E+06 0.0709161
2.80687E+06 0.0708724
2.81158E+06 0.0708288
2.81629E+06 0.0707853
2.82100E+06 0.0707419
2.82571E+06 0.0706985
2.83042E+06 0.0706553
2.83513E+06 0.0706122
2.83984E+06 0.0705692
2.84455E+06 0.0705263
2.84926E+06 0.0704835
2.85397E+06 0.0704407
2.85868E+06 0.0703981
2.86339E+06 0.0703556
2.86810E+06 0.0703131
2.87281E+06 0.0702708
2.87752E+06 0.0702285
2.88224E+06 0.0701864
2.88695E+06 0.0701443
2.89166E+06 0.0701024
2.89637E+06 0.0700605
2.90108E+06 0.0700187
2.90579E+06 0.0699770
2.91050E+06 0.0699354
2.91521E+06 0.0698939
2.91992E+06 0.0698525
2.92463E+06 0.0698112
2.92934E+06 0.0697700
2.93405E+06 0.0697288
2.93876E+06 0.0696878
2.94347E+06 0.0696468
2.94818E+06 0.0696059
2.95289E+06 0.0695652
2.95761E+06 0.0695245
2.96232E+06 0.0694839
2.96703E+06 0.0694434
2.97174E+06 0.0694029
2.97645E+06 0.0693626
2.98116E+06 0.0693223
2.98587E+06 0.0692822
2.99058E+06 0.0692421
2.99529E+06 0.0692021
3.00000E+06 0.0691622
3.00781E+06 0.0690421
3.01563E+06 0.0689226
3.02344E+06 0.0688036
3.03125E+06 0.0686851
3.03906E+06 0.0685671
3.04688E+06 0.0684496
3.05469E+06 0.0683326
3.06250E+06 0.0682161
3.07031E+06 0.0681001
3.07813E+06 0.0679846
3.08594E+06 0.0678695
3.09375E+06 0.0677550
3.10156E+06 0.0676409
3.10938E+06 0.0675273
3.11719E+06 0.0674142
3.12500E+06 0.0673016
3.13281E+06 0.0671894
3.14063E+06 0.0670777
3.14844E+06 0.0669665
3.15625E+06 0.0668557
3.16406E+06 0.0667454
3.17188E+06 0.0666355
3.17969E+06 0.0665261
3.18750E+06 0.0664171
3.19531E+06 0.0663086
3.20313E+06 0.0662005
3.21094E+06 0.0660929
3.21875E+06 0.0659857
3.22656E+06 0.0658789
3.23438E+06 0.0657726
3.24219E+06 0.0656666
3.25000E+06 0.0655612
3.25781E+06 0.0654561
3.26563E+06 0.0653514
3.27344E+06 0.0652472
3.28125E+06 0.0651434
3.28906E+06 0.0650400
3.29688E+06 0.0649370
3.30469E+06 0.0648344
3.31250E+06 0.0647322
3.32031E+06 0.0646304
3.32813E+06 0.0645290
3.33594E+06 0.0644280
3.34375E+06 0.0643274
3.35156E+06 0.0642272
3.35938E+06 0.0641274
3.36719E+06 0.0640279
3.37500E+06 0.0639289
3.38281E+06 0.0638302
3.39063E+06 0.0637319
3.39844E+06 0.0636340
3.40625E+06 0.0635365
3.41406E+06 0.0634393
3.42188E+06 0.0633425
3.42969E+06 0.0632461
3.43750E+06 0.0631501
3.44531E+06 0.0630544
3.45313E+06 0.0629590
3.46094E+06 0.0628640
3.46875E+06 0.0627694
3.47656E+06 0.0626752
3.48438E+06 0.0625813
3.49219E+06 0.0624877
3.50000E+06 0.0623945
3.50781E+06 0.0623016
3.51563E+06 0.0622091
3.52344E+06 0.0621169
3.53125E+06 0.0620251
3.53906E+06 0.0619336
3.54688E+06 0.0618424
3.55469E+06 0.0617516
3.56250E+06 0.0616611
3.57031E+06 0.0615709
3.57813E+06 0.0614811
3.58594E+06 0.0613916
3.59375E+06 0.0613024
3.60156E+06 0.0612135
3.60938E+06 0.0611250
3.61719E+06 0.0610367
3.62500E+06 0.0609488
3.63281E+06 0.0608612
3.64063E+06 0.0607740
3.64844E+06 0.0606870
3.65625E+06 0.0606003
3.66406E+06 0.0605140
3.67188E+06 0.0604279
3.67969E+06 0.0603422
3.68750E+06 0.0602568
3.69531E+06 0.0601716
3.70313E+06 0.0600868
3.71094E+06 0.0600023
3.71875E+06 0.0599180
3.72656E+06 0.0598341
3.73438E+06 0.0597504
3.74219E+06 0.0596671
3.75000E+06 0.0595840
3.75781E+06 0.0595012
3.76563E+06 0.0594187
3.77344E+06 0.0593365
3.78125E+06 0.0592546
3.78906E+06 0.0591729
3.79688E+06 0.0590916
3.80469E+06 0.0590105
3.81250E+06 0.0589297
3.82031E+06 0.0588492
3.82813E+06 0.0587689
3.83594E+06 0.0586889
3.84375E+06 0.0586092
3.85156E+06 0.0585298
3.85938E+06 0.0584506
3.86719E+06 0.0583717
3.87500E+06 0.0582930
3.88281E+06 0.0582146
3.89063E+06 0.0581365
3.89844E+06 0.0580587
3.90625E+06 0.0579811
3.91406E+06 0.0579037
3.92188E+06 0.0578267
3.92969E+06 0.0577498
3.93750E+06 0.0576733
3.94531E+06 0.0575969
3.95313E+06 0.0575209
3.96094E+06 0.0574451
3.96875E+06 0.0573695
3.97656E+06 0.0572942
3.98438E+06 0.0572191
3.99219E+06 0.0571443
4.00000E+06 0.0570697
4.01476E+06 0.0567459
4.02951E+06 0.0564252
4.04426E+06 0.0561075
4.05902E+06 0.0557927
4.07377E+06 0.0554807
4.08853E+06 0.0551717
4.10328E+06 0.0548655
4.11804E+06 0.0545620
4.13279E+06 0.0542613
4.14754E+06 0.0539634
4.16230E+06 0.0536681
4.17705E+06 0.0533755
4.19181E+06 0.0530854
4.20656E+06 0.0527980
4.22132E+06 0.0525132
4.23607E+06 0.0522308
4.25083E+06 0.0519510
4.26558E+06 0.0516736
4.28033E+06 0.0513986
4.29509E+06 0.0511260
4.30984E+06 0.0508558
4.32460E+06 0.0505880
4.33935E+06 0.0503225
4.35411E+06 0.0500593
4.36886E+06 0.0497983
4.38361E+06 0.0495395
4.39837E+06 0.0492830
4.41312E+06 0.0490286
4.42788E+06 0.0487764
4.44263E+06 0.0485264
4.45739E+06 0.0482784
4.47214E+06 0.0480325
4.48864E+06 0.0477600
4.50513E+06 0.0474901
4.52163E+06 0.0472227
4.53812E+06 0.0469577
4.55462E+06 0.0466952
4.57111E+06 0.0464351
4.58761E+06 0.0461773
4.60411E+06 0.0459220
4.62060E+06 0.0456689
4.63710E+06 0.0454181
4.65359E+06 0.0451696
4.67009E+06 0.0449233
4.68658E+06 0.0446792
4.70308E+06 0.0444373
4.71958E+06 0.0441976
4.73607E+06 0.0439599
4.75257E+06 0.0437244
4.76906E+06 0.0434909
4.78556E+06 0.0432595
4.80205E+06 0.0430301
4.81855E+06 0.0428027
4.83504E+06 0.0425773
4.85154E+06 0.0423538
4.86804E+06 0.0421323
4.88453E+06 0.0419126
4.90103E+06 0.0416949
4.91752E+06 0.0414789
4.93402E+06 0.0412649
4.95051E+06 0.0410526
4.96701E+06 0.0408421
4.98351E+06 0.0406334
5.00000E+06 0.0404265
5.01491E+06 0.0400921
5.02983E+06 0.0397615
5.04474E+06 0.0394346
5.05965E+06 0.0391113
5.07457E+06 0.0387916
5.08948E+06 0.0384755
5.10440E+06 0.0381628
5.11931E+06 0.0378536
5.13422E+06 0.0375477
5.14914E+06 0.0372453
5.16405E+06 0.0369461
5.17896E+06 0.0366502
5.19388E+06 0.0363575
5.20879E+06 0.0360679
5.22370E+06 0.0357815
5.23862E+06 0.0354982
5.25353E+06 0.0352179
5.26844E+06 0.0349406
5.28336E+06 0.0346662
5.29827E+06 0.0343948
5.31318E+06 0.0341263
5.32810E+06 0.0338606
5.34301E+06 0.0335976
5.35792E+06 0.0333375
5.37284E+06 0.0330801
5.38775E+06 0.0328254
5.40266E+06 0.0325733
5.41758E+06 0.0323239
5.43249E+06 0.0320770
5.44740E+06 0.0318328
5.46232E+06 0.0315910
5.47723E+06 0.0313517
5.49320E+06 0.0310983
5.50916E+06 0.0308476
5.52512E+06 0.0305997
5.54109E+06 0.0303545
5.55705E+06 0.0301119
5.57302E+06 0.0298720
5.58898E+06 0.0296347
5.60495E+06 0.0293999
5.62091E+06 0.0291676
5.63687E+06 0.0289379
5.65284E+06 0.0287105
5.66880E+06 0.0284856
5.68477E+06 0.0282631
5.70073E+06 0.0280429
5.71670E+06 0.0278251
5.73266E+06 0.0276096
5.74937E+06 0.0273864
5.76608E+06 0.0271657
5.78279E+06 0.0269473
5.79950E+06 0.0267314
5.81620E+06 0.0265178
5.83291E+06 0.0263065
5.84962E+06 0.0260975
5.86633E+06 0.0258907
5.88304E+06 0.0256862
5.89975E+06 0.0254838
5.91646E+06 0.0252837
5.93317E+06 0.0250856
5.94987E+06 0.0248896
5.96658E+06 0.0246958
5.98329E+06 0.0245039
6.00000E+06 0.0243141
6.01180E+06 0.0241432
6.02360E+06 0.0239739
6.03540E+06 0.0238061
6.04720E+06 0.0236398
6.05672E+06 0.0235067
6.06623E+06 0.0233747
6.07575E+06 0.0232435
6.08527E+06 0.0231133
6.09478E+06 0.0229840
6.10430E+06 0.0228557
6.11381E+06 0.0227283
6.12333E+06 0.0226018
6.13285E+06 0.0224761
6.14236E+06 0.0223514
6.15188E+06 0.0222275
6.16140E+06 0.0221046
6.17091E+06 0.0219825
6.18043E+06 0.0218612
6.18994E+06 0.0217408
6.19946E+06 0.0216213
6.20898E+06 0.0215026
6.21849E+06 0.0213847
6.22801E+06 0.0212677
6.23753E+06 0.0211514
6.24704E+06 0.0210360
6.25656E+06 0.0209214
6.26607E+06 0.0208076
6.27559E+06 0.0206946
6.28511E+06 0.0205823
6.29462E+06 0.0204708
6.30414E+06 0.0203601
6.31366E+06 0.0202502
6.32317E+06 0.0201410
6.33269E+06 0.0200326
6.34220E+06 0.0199249
6.35172E+06 0.0198180
6.36160E+06 0.0197077
6.37149E+06 0.0195982
6.38137E+06 0.0194895
6.39125E+06 0.0193815
6.40114E+06 0.0192743
6.41102E+06 0.0191679
6.42091E+06 0.0190622
6.43079E+06 0.0189573
6.44067E+06 0.0188530
6.45056E+06 0.0187496
6.46044E+06 0.0186468
6.47032E+06 0.0185448
6.48021E+06 0.0184435
6.49009E+06 0.0183429
6.49997E+06 0.0182430
6.50986E+06 0.0181437
6.51974E+06 0.0180452
6.52962E+06 0.0179474
6.53951E+06 0.0178502
6.54939E+06 0.0177537
6.55927E+06 0.0176579
6.56916E+06 0.0175627
6.57904E+06 0.0174682
6.58892E+06 0.0173743
6.59881E+06 0.0172811
6.60869E+06 0.0171885
6.61857E+06 0.0170966
6.62846E+06 0.0170052
6.63834E+06 0.0169145
6.64822E+06 0.0168245
6.65811E+06 0.0167350
6.66799E+06 0.0166461
6.67837E+06 0.0165535
6.68874E+06 0.0164615
6.69912E+06 0.0163702
6.70949E+06 0.0162795
6.71987E+06 0.0161895
6.73024E+06 0.0161001
6.74062E+06 0.0160113
6.75099E+06 0.0159232
6.76137E+06 0.0158356
6.77174E+06 0.0157487
6.78212E+06 0.0156624
6.79249E+06 0.0155767
6.80287E+06 0.0154916
6.81325E+06 0.0154071
6.82362E+06 0.0153232
6.83400E+06 0.0152399
6.84437E+06 0.0151571
6.85475E+06 0.0150749
6.86512E+06 0.0149933
6.87550E+06 0.0149123
6.88587E+06 0.0148318
6.89625E+06 0.0147518
6.90662E+06 0.0146725
6.91700E+06 0.0145936
6.92737E+06 0.0145153
6.93775E+06 0.0144376
6.94812E+06 0.0143603
6.95850E+06 0.0142836
6.96888E+06 0.0142074
6.97925E+06 0.0141318
6.98963E+06 0.0140566
7.00000E+06 0.0139820
7.00417E+06 0.0139503
7.00834E+06 0.0139188
7.01251E+06 0.0138873
7.01668E+06 0.0138559
7.02084E+06 0.0138246
7.02501E+06 0.0137934
7.02918E+06 0.0137623
7.03335E+06 0.0137313
7.03752E+06 0.0137004
7.04169E+06 0.0136695
7.04586E+06 0.0136387
7.05002E+06 0.0136081
7.05419E+06 0.0135775
7.05836E+06 0.0135470
7.06253E+06 0.0135166
7.06670E+06 0.0134862
7.07087E+06 0.0134560
7.07504E+06 0.0134258
7.07921E+06 0.0133958
7.08337E+06 0.0133658
7.08754E+06 0.0133359
7.09171E+06 0.0133061
7.09588E+06 0.0132763
7.10005E+06 0.0132467
7.10422E+06 0.0132171
7.10838E+06 0.0131876
7.11255E+06 0.0131582
7.11672E+06 0.0131289
7.12089E+06 0.0130997
7.12506E+06 0.0130705
7.12923E+06 0.0130415
7.13340E+06 0.0130125
7.13756E+06 0.0129836
7.14173E+06 0.0129547
7.14590E+06 0.0129260
7.15007E+06 0.0128973
7.15424E+06 0.0128687
7.15841E+06 0.0128402
7.16258E+06 0.0128118
7.16674E+06 0.0127835
7.17091E+06 0.0127552
7.17508E+06 0.0127270
7.17925E+06 0.0126989
7.18342E+06 0.0126709
7.18759E+06 0.0126429
7.19176E+06 0.0126151
7.19593E+06 0.0125873
7.20009E+06 0.0125595
7.20426E+06 0.0125319
7.20843E+06 0.0125043
7.21260E+06 0.0124768
7.21677E+06 0.0124494
7.22094E+06 0.0124221
7.22511E+06 0.0123948
7.22927E+06 0.0123676
7.23344E+06 0.0123405
7.23761E+06 0.0123135
7.24178E+06 0.0122865
7.24595E+06 0.0122596
7.25012E+06 0.0122328
7.25429E+06 0.0122061
7.25845E+06 0.0121794
7.26262E+06 0.0121528
7.26679E+06 0.0121263
7.27238E+06 0.0120909
7.27797E+06 0.0120556
7.28356E+06 0.0120204
7.28915E+06 0.0119853
7.29474E+06 0.0119504
7.30033E+06 0.0119156
7.30593E+06 0.0118809
7.31152E+06 0.0118464
7.31711E+06 0.0118119
7.32270E+06 0.0117776
7.32829E+06 0.0117435
7.33388E+06 0.0117094
7.33947E+06 0.0116755
7.34506E+06 0.0116417
7.35065E+06 0.0116080
7.35624E+06 0.0115745
7.36183E+06 0.0115411
7.36742E+06 0.0115078
7.37301E+06 0.0114746
7.37860E+06 0.0114415
7.38419E+06 0.0114086
7.38978E+06 0.0113758
7.39538E+06 0.0113431
7.40097E+06 0.0113105
7.40656E+06 0.0112780
7.41215E+06 0.0112457
7.41774E+06 0.0112134
7.42333E+06 0.0111813
7.42892E+06 0.0111493
7.43451E+06 0.0111174
7.44010E+06 0.0110857
7.44569E+06 0.0110540
7.45128E+06 0.0110225
7.45687E+06 0.0109910
7.46246E+06 0.0109597
7.46805E+06 0.0109285
7.47364E+06 0.0108974
7.47923E+06 0.0108665
7.48483E+06 0.0108356
7.49042E+06 0.0108049
7.49601E+06 0.0107742
7.50160E+06 0.0107437
7.50719E+06 0.0107132
7.51278E+06 0.0106829
7.51837E+06 0.0106527
7.52396E+06 0.0106226
7.52955E+06 0.0105926
7.53514E+06 0.0105627
7.54073E+06 0.0105330
7.54632E+06 0.0105033
7.55191E+06 0.0104737
7.55750E+06 0.0104442
7.56309E+06 0.0104149
7.56868E+06 0.0103856
7.57428E+06 0.0103565
7.57987E+06 0.0103274
7.58546E+06 0.0102985
7.59105E+06 0.0102696
7.59664E+06 0.0102409
7.60223E+06 0.0102123
7.60782E+06 0.0101837
7.61341E+06 0.0101553
7.61900E+06 0.0101269
7.62459E+06 0.0100987
7.63046E+06 0.0100692
7.63632E+06 0.0100398
7.64219E+06 0.0100105
7.64805E+06 0.00998127
7.65392E+06 0.00995218
7.65979E+06 0.00992319
7.66565E+06 0.00989432
7.67152E+06 0.00986555
7.67738E+06 0.00983689
7.68325E+06 0.00980833
7.68912E+06 0.00977987
7.69498E+06 0.00975153
7.70085E+06 0.00972328
7.70671E+06 0.00969513
7.71258E+06 0.00966709
7.71844E+06 0.00963916
7.72431E+06 0.00961132
7.73018E+06 0.00958359
7.73604E+06 0.00955595
7.74191E+06 0.00952842
7.74777E+06 0.00950099
7.75364E+06 0.00947365
7.75950E+06 0.00944642
7.76537E+06 0.00941929
7.77124E+06 0.00939225
7.77710E+06 0.00936531
7.78297E+06 0.00933847
7.78883E+06 0.00931173
7.79470E+06 0.00928508
7.80056E+06 0.00925852
7.80643E+06 0.00923207
7.81230E+06 0.00920571
7.81816E+06 0.00917944
7.82403E+06 0.00915327
7.82989E+06 0.00912720
7.83576E+06 0.00910121
7.84163E+06 0.00907532
7.84749E+06 0.00904952
7.85336E+06 0.00902382
7.85922E+06 0.00899821
7.86509E+06 0.00897269
7.87095E+06 0.00894726
7.87682E+06 0.00892192
7.88269E+06 0.00889667
7.88855E+06 0.00887152
7.89442E+06 0.00884645
7.90028E+06 0.00882147
7.90615E+06 0.00879658
7.91201E+06 0.00877178
7.91788E+06 0.00874707
7.92375E+06 0.00872244
7.92961E+06 0.00869791
7.93548E+06 0.00867346
7.94134E+06 0.00864909
7.94721E+06 0.00862481
7.95307E+06 0.00860063
7.95894E+06 0.00857652
7.96481E+06 0.00855250
7.97067E+06 0.00852856
7.97654E+06 0.00850472
7.98240E+06 0.00848095
7.98827E+06 0.00845726
7.99414E+06 0.00843366
8.00000E+06 0.00841015
8.00596E+06 0.00838821
8.01191E+06 0.00836634
8.01787E+06 0.00834454
8.02382E+06 0.00832282
8.02978E+06 0.00830117
8.03573E+06 0.00827959
8.04169E+06 0.00825809
8.04764E+06 0.00823665
8.05360E+06 0.00821529
8.05955E+06 0.00819400
8.06551E+06 0.00817278
8.07146E+06 0.00815163
8.07742E+06 0.00813055
8.08337E+06 0.00810954
8.08933E+06 0.00808859
8.09528E+06 0.00806772
8.10124E+06 0.00804692
8.10719E+06 0.00802619
8.11315E+06 0.00800552
8.11910E+06 0.00798493
8.12506E+06 0.00796440
8.13101E+06 0.00794394
8.13697E+06 0.00792355
8.14292E+06 0.00790322
8.14888E+06 0.00788296
8.15483E+06 0.00786277
8.16079E+06 0.00784265
8.16674E+06 0.00782259
8.17270E+06 0.00780259
8.17865E+06 0.00778266
8.18461E+06 0.00776280
8.19056E+06 0.00774300
8.19652E+06 0.00772327
8.20247E+06 0.00770360
8.20843E+06 0.00768400
8.21438E+06 0.00766446
8.22034E+06 0.00764498
8.22629E+06 0.00762557
8.23225E+06 0.00760622
8.23820E+06 0.00758694
8.24416E+06 0.00756771
8.25011E+06 0.00754855
8.25607E+06 0.00752945
8.26202E+06 0.00751042
8.26798E+06 0.00749144
8.27393E+06 0.00747253
8.27989E+06 0.00745368
8.28584E+06 0.00743489
8.29180E+06 0.00741616
8.29775E+06 0.00739749
8.30371E+06 0.00737888
8.30966E+06 0.00736033
8.31562E+06 0.00734184
8.32157E+06 0.00732341
8.32753E+06 0.00730504
8.33348E+06 0.00728673
8.33944E+06 0.00726848
8.34539E+06 0.00725029
8.35135E+06 0.00723215
8.35730E+06 0.00721407
8.36326E+06 0.00719606
8.36921E+06 0.00717809
8.37517E+06 0.00716019
8.38112E+06 0.00714235
8.39079E+06 0.00711349
8.40046E+06 0.00708478
8.41013E+06 0.00705622
8.41980E+06 0.00702781
8.42947E+06 0.00699955
8.43914E+06 0.00697143
8.44881E+06 0.00694345
8.45848E+06 0.00691562
8.46815E+06 0.00688794
8.47782E+06 0.00686039
8.48749E+06 0.00683299
8.49716E+06 0.00680573
8.50683E+06 0.00677861
8.51650E+06 0.00675162
8.52617E+06 0.00672477
8.53584E+06 0.00669807
8.54551E+06 0.00667149
8.55518E+06 0.00664505
8.56485E+06 0.00661875
8.57452E+06 0.00659258
8.58419E+06 0.00656655
8.59386E+06 0.00654064
8.60353E+06 0.00651487
8.61320E+06 0.00648922
8.62287E+06 0.00646371
8.63254E+06 0.00643832
8.64221E+06 0.00641307
8.65188E+06 0.00638794
8.66155E+06 0.00636293
8.67122E+06 0.00633806
8.68089E+06 0.00631330
8.69056E+06 0.00628867
8.70023E+06 0.00626417
8.70990E+06 0.00623978
8.71957E+06 0.00621552
8.72924E+06 0.00619138
8.73891E+06 0.00616736
8.74858E+06 0.00614346
8.75825E+06 0.00611968
8.76792E+06 0.00609602
8.77759E+06 0.00607247
8.78726E+06 0.00604904
8.79693E+06 0.00602573
8.80660E+06 0.00600253
8.81627E+06 0.00597945
8.82594E+06 0.00595648
8.83561E+06 0.00593362
8.84528E+06 0.00591088
8.85495E+06 0.00588825
8.86462E+06 0.00586573
8.87429E+06 0.00584332
8.88396E+06 0.00582102
8.89363E+06 0.00579882
8.90330E+06 0.00577674
8.91297E+06 0.00575477
8.92264E+06 0.00573290
8.93231E+06 0.00571114
8.94198E+06 0.00568949
8.95165E+06 0.00566794
8.96132E+06 0.00564649
8.97099E+06 0.00562515
8.98066E+06 0.00560392
8.99033E+06 0.00558278
9.00000E+06 0.00556175
9.00586E+06 0.00555246
9.01172E+06 0.00554319
9.01758E+06 0.00553394
9.02344E+06 0.00552472
9.02930E+06 0.00551552
9.03516E+06 0.00550633
9.04102E+06 0.00549717
9.04688E+06 0.00548803
9.05275E+06 0.00547891
9.05861E+06 0.00546981
9.06447E+06 0.00546074
9.07033E+06 0.00545168
9.07619E+06 0.00544264
9.08205E+06 0.00543363
9.08791E+06 0.00542463
9.09377E+06 0.00541566
9.09963E+06 0.00540671
9.10549E+06 0.00539778
9.11135E+06 0.00538886
9.11721E+06 0.00537997
9.12307E+06 0.00537110
9.12893E+06 0.00536225
9.13479E+06 0.00535342
9.14065E+06 0.00534461
9.14651E+06 0.00533582
9.15237E+06 0.00532705
9.15823E+06 0.00531830
9.16409E+06 0.00530957
9.16996E+06 0.00530086
9.17582E+06 0.00529217
9.18168E+06 0.00528350
9.18754E+06 0.00527485
9.19340E+06 0.00526622
9.19926E+06 0.00525761
9.20512E+06 0.00524902
9.21098E+06 0.00524045
9.21684E+06 0.00523189
9.22270E+06 0.00522336
9.22856E+06 0.00521484
9.23442E+06 0.00520635
9.24028E+06 0.00519787
9.24614E+06 0.00518942
9.25200E+06 0.00518098
9.25786E+06 0.00517256
9.26372E+06 0.00516416
9.26958E+06 0.00515578
9.27544E+06 0.00514742
9.28130E+06 0.00513908
9.28716E+06 0.00513075
9.29302E+06 0.00512245
9.29889E+06 0.00511416
9.30475E+06 0.00510589
9.31061E+06 0.00509764
9.31647E+06 0.00508941
9.32233E+06 0.00508120
9.32819E+06 0.00507301
9.33405E+06 0.00506483
9.33991E+06 0.00505667
9.34577E+06 0.00504853
9.35163E+06 0.00504041
9.35749E+06 0.00503231
9.36335E+06 0.00502423
9.36921E+06 0.00501616
9.37507E+06 0.00500811
9.37995E+06 0.00500142
9.38484E+06 0.00499474
9.38972E+06 0.00498807
9.39460E+06 0.00498142
9.39948E+06 0.00497477
9.40437E+06 0.00496815
9.40925E+06 0.00496153
9.41413E+06 0.00495492
9.41901E+06 0.00494833
9.42389E+06 0.00494175
9.42878E+06 0.00493518
9.43366E+06 0.00492862
9.43854E+06 0.00492208
9.44342E+06 0.00491555
9.44831E+06 0.00490903
9.45319E+06 0.00490252
9.45807E+06 0.00489602
9.46295E+06 0.00488954
9.46783E+06 0.00488306
9.47272E+06 0.00487660
9.47760E+06 0.00487015
9.48248E+06 0.00486372
9.48736E+06 0.00485729
9.49225E+06 0.00485088
9.49713E+06 0.00484448
9.50201E+06 0.00483809
9.50689E+06 0.00483171
9.51177E+06 0.00482534
9.51666E+06 0.00481899
9.52154E+06 0.00481265
9.52642E+06 0.00480631
9.53130E+06 0.00479999
9.53619E+06 0.00479369
9.54107E+06 0.00478739
9.54595E+06 0.00478110
9.55083E+06 0.00477483
9.55572E+06 0.00476857
9.56060E+06 0.00476232
9.56548E+06 0.00475608
9.57036E+06 0.00474985
9.57524E+06 0.00474363
9.58013E+06 0.00473742
9.58501E+06 0.00473123
9.58989E+06 0.00472505
9.59477E+06 0.00471887
9.59966E+06 0.00471271
9.60454E+06 0.00470656
9.60942E+06 0.00470043
9.61430E+06 0.00469430
9.61918E+06 0.00468818
9.62407E+06 0.00468208
9.62895E+06 0.00467598
9.63383E+06 0.00466990
9.63871E+06 0.00466383
9.64360E+06 0.00465777
9.64848E+06 0.00465172
9.65336E+06 0.00464568
9.65824E+06 0.00463965
9.66312E+06 0.00463363
9.66801E+06 0.00462762
9.67289E+06 0.00462163
9.67777E+06 0.00461564
9.68265E+06 0.00460967
9.68754E+06 0.00460370
9.69242E+06 0.00459775
9.69730E+06 0.00459181
9.70218E+06 0.00458588
9.70707E+06 0.00457995
9.71195E+06 0.00457404
9.71683E+06 0.00456814
9.72171E+06 0.00456226
9.72659E+06 0.00455638
9.73148E+06 0.00455051
9.73636E+06 0.00454465
9.74124E+06 0.00453880
9.74612E+06 0.00453297
9.75101E+06 0.00452714
9.75589E+06 0.00452132
9.76077E+06 0.00451552
9.76565E+06 0.00450972
9.77542E+06 0.00449816
9.78518E+06 0.00448665
9.79495E+06 0.00447517
9.80471E+06 0.00446373
9.81448E+06 0.00445234
9.82424E+06 0.00444098
9.83400E+06 0.00442966
9.84377E+06 0.00441839
9.85353E+06 0.00440715
9.86330E+06 0.00439596
9.87306E+06 0.00438480
9.88283E+06 0.00437368
9.89259E+06 0.00436261
9.90236E+06 0.00435157
9.91212E+06 0.00434057
9.92188E+06 0.00432961
9.93165E+06 0.00431868
9.94141E+06 0.00430780
9.95118E+06 0.00429695
9.96094E+06 0.00428614
9.97071E+06 0.00427537
9.98047E+06 0.00426464
9.99024E+06 0.00425394
1.00000E+07 0.00424328
1.00053E+07 0.00423457
1.00106E+07 0.00422590
1.00158E+07 0.00421724
1.00211E+07 0.00420862
1.00264E+07 0.00420000
1.00317E+07 0.00419142
1.00369E+07 0.00418286
1.00422E+07 0.00417432
1.00475E+07 0.00416579
1.00527E+07 0.00415730
1.00580E+07 0.00414881
1.00633E+07 0.00414036
1.00686E+07 0.00413192
1.00738E+07 0.00412351
1.00791E+07 0.00411513
1.00844E+07 0.00410676
1.00897E+07 0.00409841
1.00949E+07 0.00409009
1.01002E+07 0.00408177
1.01055E+07 0.00407349
1.01108E+07 0.00406522
1.01160E+07 0.00405699
1.01213E+07 0.00404877
1.01266E+07 0.00404058
1.01319E+07 0.00403239
1.01371E+07 0.00402424
1.01424E+07 0.00401610
1.01477E+07 0.00400799
1.01529E+07 0.00399989
1.01582E+07 0.00399182
1.01635E+07 0.00398377
1.01688E+07 0.00397574
1.01740E+07 0.00396772
1.01793E+07 0.00395973
1.01846E+07 0.00395174
1.01899E+07 0.00394380
1.01951E+07 0.00393585
1.02004E+07 0.00392795
1.02057E+07 0.00392006
1.02109E+07 0.00391219
1.02162E+07 0.00390433
1.02215E+07 0.00389650
1.02268E+07 0.00388868
1.02320E+07 0.00388089
1.02373E+07 0.00387310
1.02426E+07 0.00386535
1.02479E+07 0.00385762
1.02531E+07 0.00384991
1.02584E+07 0.00384221
1.02637E+07 0.00383453
1.02690E+07 0.00382687
1.02742E+07 0.00381923
1.02795E+07 0.00381160
1.02848E+07 0.00380401
1.02901E+07 0.00379643
1.02953E+07 0.00378887
1.03006E+07 0.00378132
1.03059E+07 0.00377380
1.03111E+07 0.00376630
1.03164E+07 0.00375882
1.03217E+07 0.00375134
1.03270E+07 0.00374390
1.03322E+07 0.00373647
1.03375E+07 0.00372906
1.03375E+07 0.00372902
1.03470E+07 0.00371583
1.03564E+07 0.00370270
1.03658E+07 0.00368964
1.03752E+07 0.00367663
1.03846E+07 0.00366368
1.03940E+07 0.00365079
1.04034E+07 0.00363796
1.04128E+07 0.00362518
1.04222E+07 0.00361246
1.04316E+07 0.00359979
1.04411E+07 0.00358718
1.04505E+07 0.00357463
1.04599E+07 0.00356213
1.04693E+07 0.00354969
1.04787E+07 0.00353730
1.04881E+07 0.00352496
1.04961E+07 0.00351611
1.05041E+07 0.00350728
1.05121E+07 0.00349849
1.05201E+07 0.00348972
1.05281E+07 0.00348098
1.05361E+07 0.00347227
1.05441E+07 0.00346359
1.05521E+07 0.00345495
1.05601E+07 0.00344633
1.05681E+07 0.00343773
1.05761E+07 0.00342916
1.05841E+07 0.00342062
1.05921E+07 0.00341211
1.06001E+07 0.00340362
1.06081E+07 0.00339516
1.06161E+07 0.00338674
1.06241E+07 0.00337834
1.06321E+07 0.00336996
1.06401E+07 0.00336161
1.06481E+07 0.00335329
1.06561E+07 0.00334500
1.06641E+07 0.00333673
1.06721E+07 0.00332848
1.06801E+07 0.00332028
1.06881E+07 0.00331209
1.06961E+07 0.00330393
1.07041E+07 0.00329579
1.07121E+07 0.00328769
1.07201E+07 0.00327960
1.07281E+07 0.00327155
1.07361E+07 0.00326351
1.07441E+07 0.00325552
1.07521E+07 0.00324753
1.07601E+07 0.00323958
1.07681E+07 0.00323165
1.07761E+07 0.00322374
1.07841E+07 0.00321586
1.07921E+07 0.00320800
1.08001E+07 0.00320017
1.08080E+07 0.00319238
1.08160E+07 0.00318460
1.08240E+07 0.00317684
1.08320E+07 0.00316911
1.08400E+07 0.00316140
1.08480E+07 0.00315372
1.08560E+07 0.00314606
1.08640E+07 0.00313843
1.08720E+07 0.00313083
1.08800E+07 0.00312324
1.08880E+07 0.00311568
1.08960E+07 0.00310814
1.09040E+07 0.00310063
1.09120E+07 0.00309314
1.09200E+07 0.00308567
1.09280E+07 0.00307823
1.09360E+07 0.00307081
1.09440E+07 0.00306342
1.09520E+07 0.00305604
1.09600E+07 0.00304869
1.09680E+07 0.00304137
1.09760E+07 0.00303407
1.09840E+07 0.00302679
1.09920E+07 0.00301953
1.10000E+07 0.00301230
1.10078E+07 0.00300524
1.10156E+07 0.00299820
1.10234E+07 0.00299119
1.10313E+07 0.00298420
1.10391E+07 0.00297722
1.10469E+07 0.00297027
1.10547E+07 0.00296334
1.10625E+07 0.00295644
1.10703E+07 0.00294954
1.10781E+07 0.00294268
1.10859E+07 0.00293583
1.10938E+07 0.00292901
1.11016E+07 0.00292220
1.11094E+07 0.00291542
1.11172E+07 0.00290865
1.11250E+07 0.00290191
1.11328E+07 0.00289518
1.11406E+07 0.00288848
1.11484E+07 0.00288180
1.11563E+07 0.00287514
1.11641E+07 0.00286849
1.11719E+07 0.00286187
1.11797E+07 0.00285527
1.11875E+07 0.00284869
1.11953E+07 0.00284212
1.12031E+07 0.00283558
1.12109E+07 0.00282906
1.12188E+07 0.00282256
1.12266E+07 0.00281607
1.12344E+07 0.00280961
1.12422E+07 0.00280316
1.12500E+07 0.00279674
1.12578E+07 0.00279032
1.12656E+07 0.00278394
1.12734E+07 0.00277757
1.12813E+07 0.00277122
1.12891E+07 0.00276489
1.12969E+07 0.00275858
1.13047E+07 0.00275228
1.13125E+07 0.00274601
1.13203E+07 0.00273975
1.13281E+07 0.00273351
1.13359E+07 0.00272729
1.13438E+07 0.00272110
1.13516E+07 0.00271491
1.13594E+07 0.00270874
1.13672E+07 0.00270260
1.13750E+07 0.00269647
1.13828E+07 0.00269036
1.13906E+07 0.00268427
1.13984E+07 0.00267820
1.14063E+07 0.00267214
1.14141E+07 0.00266610
1.14219E+07 0.00266008
1.14297E+07 0.00265408
1.14375E+07 0.00264810
1.14453E+07 0.00264212
1.14531E+07 0.00263618
1.14609E+07 0.00263024
1.14688E+07 0.00262433
1.14766E+07 0.00261843
1.14844E+07 0.00261255
1.14922E+07 0.00260669
1.15000E+07 0.00260084
1.15078E+07 0.00259501
1.15156E+07 0.00258920
1.15234E+07 0.00258340
1.15313E+07 0.00257763
1.15391E+07 0.00257186
1.15469E+07 0.00256612
1.15547E+07 0.00256039
1.15625E+07 0.00255468
1.15703E+07 0.00254898
1.15781E+07 0.00254331
1.15859E+07 0.00253765
1.15938E+07 0.00253200
1.16016E+07 0.00252637
1.16094E+07 0.00252076
1.16172E+07 0.00251516
1.16250E+07 0.00250958
1.16328E+07 0.00250401
1.16406E+07 0.00249847
1.16484E+07 0.00249294
1.16563E+07 0.00248742
1.16641E+07 0.00248192
1.16719E+07 0.00247643
1.16797E+07 0.00247097
1.16875E+07 0.00246551
1.16953E+07 0.00246007
1.17031E+07 0.00245465
1.17109E+07 0.00244925
1.17188E+07 0.00244386
1.17266E+07 0.00243848
1.17344E+07 0.00243312
1.17422E+07 0.00242778
1.17500E+07 0.00242245
1.17578E+07 0.00241713
1.17656E+07 0.00241183
1.17734E+07 0.00240655
1.17813E+07 0.00240128
1.17891E+07 0.00239603
1.17969E+07 0.00239079
1.18047E+07 0.00238557
1.18125E+07 0.00238036
1.18203E+07 0.00237516
1.18281E+07 0.00236998
1.18359E+07 0.00236482
1.18438E+07 0.00235967
1.18516E+07 0.00235453
1.18594E+07 0.00234941
1.18672E+07 0.00234431
1.18750E+07 0.00233922
1.18828E+07 0.00233413
1.18906E+07 0.00232907
1.18984E+07 0.00232403
1.19063E+07 0.00231899
1.19141E+07 0.00231397
1.19219E+07 0.00230896
1.19297E+07 0.00230397
1.19375E+07 0.00229900
1.19453E+07 0.00229403
1.19531E+07 0.00228908
1.19609E+07 0.00228414
1.19688E+07 0.00227922
1.19766E+07 0.00227431
1.19844E+07 0.00226942
1.19922E+07 0.00226454
1.20000E+07 0.00225967
1.20078E+07 0.00225449
1.20156E+07 0.00224934
1.20234E+07 0.00224420
1.20313E+07 0.00223908
1.20391E+07 0.00223396
1.20469E+07 0.00222887
1.20547E+07 0.00222379
1.20625E+07 0.00221872
1.20703E+07 0.00221367
1.20781E+07 0.00220863
1.20859E+07 0.00220361
1.20938E+07 0.00219861
1.21016E+07 0.00219361
1.21094E+07 0.00218863
1.21172E+07 0.00218367
1.21250E+07 0.00217873
1.21328E+07 0.00217379
1.21406E+07 0.00216887
1.21484E+07 0.00216396
1.21563E+07 0.00215907
1.21641E+07 0.00215419
1.21719E+07 0.00214933
1.21797E+07 0.00214448
1.21875E+07 0.00213965
1.21953E+07 0.00213482
1.22031E+07 0.00213002
1.22109E+07 0.00212522
1.22188E+07 0.00212045
1.22266E+07 0.00211568
1.22344E+07 0.00211093
1.22422E+07 0.00210619
1.22500E+07 0.00210147
1.22578E+07 0.00209675
1.22656E+07 0.00209205
1.22734E+07 0.00208737
1.22813E+07 0.00208270
1.22891E+07 0.00207804
1.22969E+07 0.00207340
1.23047E+07 0.00206877
1.23125E+07 0.00206415
1.23203E+07 0.00205955
1.23281E+07 0.00205496
1.23359E+07 0.00205038
1.23438E+07 0.00204582
1.23516E+07 0.00204126
1.23594E+07 0.00203673
1.23672E+07 0.00203220
1.23750E+07 0.00202769
1.23828E+07 0.00202319
1.23906E+07 0.00201870
1.23984E+07 0.00201423
1.24063E+07 0.00200977
1.24141E+07 0.00200531
1.24219E+07 0.00200088
1.24297E+07 0.00199646
1.24375E+07 0.00199205
1.24453E+07 0.00198765
1.24531E+07 0.00198326
1.24609E+07 0.00197889
1.24688E+07 0.00197453
1.24766E+07 0.00197018
1.24844E+07 0.00196584
1.24922E+07 0.00196152
1.25000E+07 0.00195721
1.25078E+07 0.00195290
1.25156E+07 0.00194862
1.25234E+07 0.00194434
1.25313E+07 0.00194008
1.25391E+07 0.00193582
1.25469E+07 0.00193158
1.25547E+07 0.00192736
1.25625E+07 0.00192314
1.25703E+07 0.00191894
1.25781E+07 0.00191474
1.25859E+07 0.00191056
1.25938E+07 0.00190640
1.26016E+07 0.00190224
1.26094E+07 0.00189809
1.26172E+07 0.00189396
1.26250E+07 0.00188984
1.26328E+07 0.00188572
1.26406E+07 0.00188162
1.26484E+07 0.00187754
1.26563E+07 0.00187346
1.26641E+07 0.00186939
1.26719E+07 0.00186534
1.26797E+07 0.00186130
1.26875E+07 0.00185727
1.26953E+07 0.00185325
1.27031E+07 0.00184924
1.27109E+07 0.00184524
1.27188E+07 0.00184126
1.27266E+07 0.00183728
1.27344E+07 0.00183331
1.27422E+07 0.00182936
1.27500E+07 0.00182542
1.27578E+07 0.00182148
1.27656E+07 0.00181756
1.27734E+07 0.00181365
1.27813E+07 0.00180976
1.27891E+07 0.00180586
1.27969E+07 0.00180199
1.28047E+07 0.00179812
1.28125E+07 0.00179427
1.28203E+07 0.00179042
1.28281E+07 0.00178658
1.28359E+07 0.00178276
1.28438E+07 0.00177894
1.28516E+07 0.00177514
1.28594E+07 0.00177134
1.28672E+07 0.00176756
1.28750E+07 0.00176379
1.28828E+07 0.00176003
1.28906E+07 0.00175627
1.28984E+07 0.00175253
1.29063E+07 0.00174880
1.29141E+07 0.00174508
1.29219E+07 0.00174137
1.29297E+07 0.00173767
1.29375E+07 0.00173398
1.29453E+07 0.00173029
1.29531E+07 0.00172662
1.29609E+07 0.00172297
1.29688E+07 0.00171932
1.29766E+07 0.00171567
1.29844E+07 0.00171204
1.29922E+07 0.00170842
1.30000E+07 0.00170481
1.30156E+07 0.00169915
1.30313E+07 0.00169352
1.30469E+07 0.00168791
1.30625E+07 0.00168233
1.30781E+07 0.00167677
1.30938E+07 0.00167124
1.31094E+07 0.00166573
1.31250E+07 0.00166025
1.31406E+07 0.00165479
1.31563E+07 0.00164936
1.31719E+07 0.00164395
1.31875E+07 0.00163856
1.32031E+07 0.00163320
1.32188E+07 0.00162786
1.32344E+07 0.00162255
1.32500E+07 0.00161726
1.32656E+07 0.00161199
1.32813E+07 0.00160675
1.32969E+07 0.00160153
1.33125E+07 0.00159633
1.33281E+07 0.00159116
1.33438E+07 0.00158601
1.33594E+07 0.00158087
1.33750E+07 0.00157577
1.33906E+07 0.00157068
1.34063E+07 0.00156562
1.34219E+07 0.00156058
1.34375E+07 0.00155557
1.34531E+07 0.00155057
1.34688E+07 0.00154560
1.34844E+07 0.00154065
1.35000E+07 0.00153572
1.35156E+07 0.00153081
1.35313E+07 0.00152592
1.35469E+07 0.00152105
1.35625E+07 0.00151621
1.35781E+07 0.00151138
1.35938E+07 0.00150658
1.36094E+07 0.00150180
1.36250E+07 0.00149704
1.36406E+07 0.00149229
1.36563E+07 0.00148757
1.36719E+07 0.00148287
1.36875E+07 0.00147819
1.37031E+07 0.00147353
1.37188E+07 0.00146889
1.37344E+07 0.00146427
1.37500E+07 0.00145967
1.37656E+07 0.00145509
1.37813E+07 0.00145053
1.37969E+07 0.00144598
1.38125E+07 0.00144146
1.38281E+07 0.00143696
1.38438E+07 0.00143247
1.38594E+07 0.00142801
1.38750E+07 0.00142356
1.38906E+07 0.00141913
1.39063E+07 0.00141473
1.39219E+07 0.00141033
1.39375E+07 0.00140596
1.39531E+07 0.00140161
1.39688E+07 0.00139728
1.39844E+07 0.00139296
1.40000E+07 0.00138866
1.40313E+07 0.00138355
1.40625E+07 0.00137847
1.40938E+07 0.00137342
1.41250E+07 0.00136840
1.41563E+07 0.00136341
1.41875E+07 0.00135845
1.42188E+07 0.00135352
1.42500E+07 0.00134862
1.42813E+07 0.00134374
1.43125E+07 0.00133889
1.43438E+07 0.00133407
1.43750E+07 0.00132928
1.44063E+07 0.00132452
1.44375E+07 0.00131978
1.44688E+07 0.00131507
1.45000E+07 0.00131039
1.45313E+07 0.00130574
1.45625E+07 0.00130111
1.45938E+07 0.00129651
1.46250E+07 0.00129193
1.46563E+07 0.00128738
1.46875E+07 0.00128285
1.47188E+07 0.00127835
1.47500E+07 0.00127388
1.47813E+07 0.00126943
1.48125E+07 0.00126500
1.48438E+07 0.00126061
1.48750E+07 0.00125623
1.49063E+07 0.00125188
1.49375E+07 0.00124755
1.49688E+07 0.00124325
1.50000E+07 0.00123897
1.50195E+07 0.00123765
1.50390E+07 0.00123633
1.50585E+07 0.00123502
1.50780E+07 0.00123371
1.50975E+07 0.00123240
1.51170E+07 0.00123109
1.51365E+07 0.00122979
1.51560E+07 0.00122849
1.51755E+07 0.00122719
1.51950E+07 0.00122590
1.52145E+07 0.00122461
1.52340E+07 0.00122332
1.52535E+07 0.00122204
1.52730E+07 0.00122076
1.52925E+07 0.00121948
1.53120E+07 0.00121820
1.53315E+07 0.00121693
1.53510E+07 0.00121566
1.53705E+07 0.00121439
1.53900E+07 0.00121313
1.54095E+07 0.00121187
1.54290E+07 0.00121061
1.54485E+07 0.00120936
1.54680E+07 0.00120810
1.54875E+07 0.00120686
1.55070E+07 0.00120561
1.55265E+07 0.00120437
1.55460E+07 0.00120313
1.55655E+07 0.00120189
1.55850E+07 0.00120065
1.56045E+07 0.00119942
1.56240E+07 0.00119819
1.56475E+07 0.00119671
1.56710E+07 0.00119524
1.56945E+07 0.00119377
1.57180E+07 0.00119230
1.57415E+07 0.00119084
1.57650E+07 0.00118938
1.57885E+07 0.00118793
1.58120E+07 0.00118648
1.58355E+07 0.00118503
1.58590E+07 0.00118359
1.58825E+07 0.00118215
1.59060E+07 0.00118072
1.59295E+07 0.00117929
1.59530E+07 0.00117786
1.59765E+07 0.00117644
1.60000E+07 0.00117502
1.60313E+07 0.00117442
1.60625E+07 0.00117383
1.60938E+07 0.00117324
1.61250E+07 0.00117264
1.61563E+07 0.00117205
1.61875E+07 0.00117146
1.62188E+07 0.00117088
1.62500E+07 0.00117029
1.62813E+07 0.00116970
1.63125E+07 0.00116912
1.63438E+07 0.00116854
1.63750E+07 0.00116796
1.64063E+07 0.00116738
1.64375E+07 0.00116680
1.64688E+07 0.00116623
1.65000E+07 0.00116565
1.65313E+07 0.00116508
1.65625E+07 0.00116450
1.65938E+07 0.00116393
1.66250E+07 0.00116336
1.66563E+07 0.00116279
1.66875E+07 0.00116223
1.67188E+07 0.00116166
1.67500E+07 0.00116110
1.67813E+07 0.00116053
1.68125E+07 0.00115997
1.68438E+07 0.00115941
1.68750E+07 0.00115885
1.69063E+07 0.00115830
1.69375E+07 0.00115774
1.69688E+07 0.00115718
1.70000E+07 0.00115663
1.70106E+07 0.00115661
1.70213E+07 0.00115659
1.70319E+07 0.00115657
1.70426E+07 0.00115656
1.70532E+07 0.00115654
1.70638E+07 0.00115652
1.70745E+07 0.00115650
1.70851E+07 0.00115648
1.70957E+07 0.00115646
1.71064E+07 0.00115644
1.71170E+07 0.00115642
1.71277E+07 0.00115641
1.71383E+07 0.00115639
1.71489E+07 0.00115637
1.71596E+07 0.00115635
1.71702E+07 0.00115633
1.71808E+07 0.00115631
1.71915E+07 0.00115629
1.72021E+07 0.00115627
1.72128E+07 0.00115626
1.72234E+07 0.00115624
1.72340E+07 0.00115622
1.72447E+07 0.00115620
1.72553E+07 0.00115618
1.72659E+07 0.00115616
1.72766E+07 0.00115614
1.72872E+07 0.00115613
1.72979E+07 0.00115611
1.73085E+07 0.00115609
1.73191E+07 0.00115607
1.73298E+07 0.00115605
1.73404E+07 0.00115603
1.73507E+07 0.00115602
1.73610E+07 0.00115600
1.73713E+07 0.00115598
1.73816E+07 0.00115596
1.73919E+07 0.00115594
1.74022E+07 0.00115593
1.74126E+07 0.00115591
1.74229E+07 0.00115589
1.74332E+07 0.00115587
1.74435E+07 0.00115586
1.74538E+07 0.00115584
1.74641E+07 0.00115582
1.74744E+07 0.00115580
1.74847E+07 0.00115578
1.74950E+07 0.00115577
1.75053E+07 0.00115575
1.75156E+07 0.00115573
1.75259E+07 0.00115571
1.75362E+07 0.00115570
1.75465E+07 0.00115568
1.75568E+07 0.00115566
1.75671E+07 0.00115564
1.75775E+07 0.00115563
1.75878E+07 0.00115561
1.75981E+07 0.00115559
1.76084E+07 0.00115557
1.76187E+07 0.00115555
1.76290E+07 0.00115554
1.76393E+07 0.00115552
1.76496E+07 0.00115550
1.76599E+07 0.00115548
1.76702E+07 0.00115547
1.76805E+07 0.00115545
1.76908E+07 0.00115543
1.77011E+07 0.00115541
1.77114E+07 0.00115540
1.77217E+07 0.00115538
1.77320E+07 0.00115536
1.77424E+07 0.00115534
1.77527E+07 0.00115533
1.77630E+07 0.00115531
1.77733E+07 0.00115529
1.77836E+07 0.00115527
1.77939E+07 0.00115526
1.78042E+07 0.00115524
1.78145E+07 0.00115522
1.78248E+07 0.00115520
1.78351E+07 0.00115519
1.78454E+07 0.00115517
1.78557E+07 0.00115515
1.78660E+07 0.00115514
1.78763E+07 0.00115512
1.78866E+07 0.00115510
1.78969E+07 0.00115508
1.79073E+07 0.00115507
1.79176E+07 0.00115505
1.79279E+07 0.00115503
1.79382E+07 0.00115501
1.79485E+07 0.00115500
1.79588E+07 0.00115498
1.79691E+07 0.00115496
1.79794E+07 0.00115494
1.79897E+07 0.00115493
1.80000E+07 0.00115491
1.80154E+07 0.00115520
1.80307E+07 0.00115549
1.80461E+07 0.00115577
1.80615E+07 0.00115606
1.80769E+07 0.00115635
1.80922E+07 0.00115663
1.81076E+07 0.00115692
1.81230E+07 0.00115721
1.81383E+07 0.00115749
1.81537E+07 0.00115778
1.81691E+07 0.00115806
1.81844E+07 0.00115835
1.81998E+07 0.00115864
1.82152E+07 0.00115892
1.82305E+07 0.00115921
1.82459E+07 0.00115949
1.82613E+07 0.00115978
1.82766E+07 0.00116006
1.82920E+07 0.00116034
1.83074E+07 0.00116063
1.83228E+07 0.00116091
1.83381E+07 0.00116120
1.83535E+07 0.00116148
1.83689E+07 0.00116176
1.83842E+07 0.00116205
1.83996E+07 0.00116233
1.84150E+07 0.00116261
1.84303E+07 0.00116290
1.84457E+07 0.00116318
1.84611E+07 0.00116346
1.84764E+07 0.00116375
1.84918E+07 0.00116403
1.85077E+07 0.00116432
1.85236E+07 0.00116461
1.85395E+07 0.00116490
1.85553E+07 0.00116519
1.85712E+07 0.00116548
1.85871E+07 0.00116577
1.86030E+07 0.00116606
1.86189E+07 0.00116636
1.86347E+07 0.00116665
1.86506E+07 0.00116694
1.86665E+07 0.00116723
1.86824E+07 0.00116751
1.86983E+07 0.00116780
1.87141E+07 0.00116809
1.87300E+07 0.00116838
1.87459E+07 0.00116867
1.87618E+07 0.00116896
1.87777E+07 0.00116925
1.87936E+07 0.00116954
1.88094E+07 0.00116983
1.88253E+07 0.00117011
1.88412E+07 0.00117040
1.88571E+07 0.00117069
1.88730E+07 0.00117098
1.88888E+07 0.00117126
1.89047E+07 0.00117155
1.89206E+07 0.00117184
1.89365E+07 0.00117212
1.89524E+07 0.00117241
1.89682E+07 0.00117270
1.89841E+07 0.00117298
1.90000E+07 0.00117327
1.90156E+07 0.00117372
1.90313E+07 0.00117417
1.90469E+07 0.00117462
1.90625E+07 0.00117506
1.90781E+07 0.00117551
1.90938E+07 0.00117596
1.91094E+07 0.00117641
1.91250E+07 0.00117685
1.91406E+07 0.00117730
1.91563E+07 0.00117775
1.91719E+07 0.00117820
1.91875E+07 0.00117864
1.92031E+07 0.00117909
1.92188E+07 0.00117953
1.92344E+07 0.00117998
1.92500E+07 0.00118043
1.92656E+07 0.00118087
1.92813E+07 0.00118132
1.92969E+07 0.00118176
1.93125E+07 0.00118221
1.93281E+07 0.00118265
1.93438E+07 0.00118310
1.93594E+07 0.00118354
1.93750E+07 0.00118399
1.93906E+07 0.00118443
1.94063E+07 0.00118487
1.94219E+07 0.00118532
1.94375E+07 0.00118576
1.94531E+07 0.00118620
1.94688E+07 0.00118665
1.94844E+07 0.00118709
1.95000E+07 0.00118753
1.95156E+07 0.00118798
1.95313E+07 0.00118842
1.95469E+07 0.00118886
1.95625E+07 0.00118930
1.95781E+07 0.00118974
1.95938E+07 0.00119018
1.96094E+07 0.00119063
1.96250E+07 0.00119107
1.96406E+07 0.00119151
1.96563E+07 0.00119195
1.96719E+07 0.00119239
1.96875E+07 0.00119283
1.97031E+07 0.00119327
1.97188E+07 0.00119371
1.97344E+07 0.00119415
1.97500E+07 0.00119459
1.97656E+07 0.00119503
1.97813E+07 0.00119547
1.97969E+07 0.00119591
1.98125E+07 0.00119635
1.98281E+07 0.00119679
1.98438E+07 0.00119722
1.98594E+07 0.00119766
1.98750E+07 0.00119810
1.98906E+07 0.00119854
1.99063E+07 0.00119898
1.99219E+07 0.00119942
1.99375E+07 0.00119985
1.99531E+07 0.00120029
1.99688E+07 0.00120073
1.99844E+07 0.00120116
2.00000E+07 0.00120160
