Sn-119(n,g) ENDFB-8.0
Energy(eV) XS(b)
1.00000E-05 110.457
1.03125E-05 108.770
1.06250E-05 107.159
1.09375E-05 105.617
1.12500E-05 104.140
1.15625E-05 102.723
1.18750E-05 101.362
1.21875E-05 100.054
1.25000E-05 98.7955
1.28125E-05 97.5832
1.31250E-05 96.4145
1.34375E-05 95.2868
1.37500E-05 94.1977
1.43750E-05 92.1272
1.50000E-05 90.1874
1.56250E-05 88.3652
1.62500E-05 86.6492
1.68750E-05 85.0294
1.75000E-05 83.4972
1.81250E-05 82.0450
1.87500E-05 80.6660
1.93750E-05 79.3542
2.00000E-05 78.1044
2.09375E-05 76.3358
2.18750E-05 74.6821
2.28125E-05 73.1314
2.37500E-05 71.6734
2.46875E-05 70.2994
2.56250E-05 69.0014
2.65625E-05 67.7727
2.75000E-05 66.6075
2.84375E-05 65.5003
2.93750E-05 64.4466
3.03125E-05 63.4422
3.12500E-05 62.4833
3.21875E-05 61.5666
3.31250E-05 60.6891
3.40625E-05 59.8480
3.50000E-05 59.0410
3.59375E-05 58.2658
3.68750E-05 57.5204
3.78125E-05 56.8028
3.87500E-05 56.1115
3.96875E-05 55.4447
4.06250E-05 54.8012
4.25000E-05 53.5787
4.43750E-05 52.4345
4.62500E-05 51.3606
4.81250E-05 50.3501
5.00000E-05 49.3970
5.15625E-05 48.6428
5.31250E-05 47.9221
5.46875E-05 47.2325
5.62500E-05 46.5718
5.78125E-05 45.9381
5.93750E-05 45.3296
6.09375E-05 44.7447
6.25000E-05 44.1818
6.40625E-05 43.6396
6.56250E-05 43.1170
6.71875E-05 42.6126
6.87500E-05 42.1256
7.18750E-05 41.1996
7.50000E-05 40.3321
7.81250E-05 39.5171
8.12500E-05 38.7497
8.43750E-05 38.0253
8.75000E-05 37.3400
9.06250E-05 36.6906
9.37500E-05 36.0738
9.68750E-05 35.4872
0.000100000 34.9282
0.000103125 34.3949
0.000106250 33.8853
0.000109375 33.3977
0.000112500 32.9305
0.000115625 32.4824
0.000118750 32.0521
0.000121875 31.6385
0.000125000 31.2405
0.000128125 30.8571
0.000131250 30.4875
0.000134375 30.1309
0.000137500 29.7865
0.000143750 29.1317
0.000150000 28.5182
0.000156250 27.9420
0.000162500 27.3993
0.000168750 26.8870
0.000175000 26.4025
0.000181250 25.9432
0.000187500 25.5071
0.000193750 25.0922
0.000200000 24.6970
0.000209375 24.1377
0.000218750 23.6147
0.000228125 23.1243
0.000237500 22.6632
0.000246875 22.2286
0.000256250 21.8181
0.000265625 21.4296
0.000275000 21.0610
0.000284375 20.7109
0.000293750 20.3776
0.000303125 20.0600
0.000312500 19.7567
0.000321875 19.4668
0.000331250 19.1893
0.000340625 18.9233
0.000350000 18.6681
0.000359375 18.4229
0.000368750 18.1871
0.000378125 17.9602
0.000387500 17.7415
0.000396875 17.5307
0.000406250 17.3271
0.000425000 16.9405
0.000443750 16.5786
0.000462500 16.2389
0.000481250 15.9193
0.000500000 15.6179
0.000515625 15.3793
0.000531250 15.1514
0.000546875 14.9333
0.000562500 14.7243
0.000578125 14.5239
0.000593750 14.3314
0.000609375 14.1464
0.000625000 13.9684
0.000640625 13.7969
0.000656250 13.6316
0.000671875 13.4720
0.000687500 13.3180
0.000718750 13.0251
0.000750000 12.7507
0.000781250 12.4929
0.000812500 12.2502
0.000843750 12.0210
0.000875000 11.8043
0.000906250 11.5988
0.000937500 11.4037
0.000968750 11.2181
0.00100000 11.0413
0.00103125 10.8726
0.00106250 10.7114
0.00109375 10.5572
0.00112500 10.4094
0.00115625 10.2676
0.00118750 10.1315
0.00121875 10.0006
0.00125000 9.87470
0.00128125 9.75341
0.00131250 9.63648
0.00134375 9.52365
0.00137500 9.41469
0.00143750 9.20752
0.00150000 9.01344
0.00156250 8.83111
0.00162500 8.65940
0.00168750 8.49731
0.00175000 8.34399
0.00181250 8.19866
0.00187500 8.06066
0.00193750 7.92938
0.00200000 7.80430
0.00209375 7.62729
0.00218750 7.46178
0.00228125 7.30657
0.00237500 7.16064
0.00246875 7.02309
0.00256250 6.89316
0.00265625 6.77017
0.00275000 6.65351
0.00284375 6.54267
0.00293750 6.43718
0.00303125 6.33661
0.00312500 6.24060
0.00321875 6.14882
0.00331250 6.06095
0.00340625 5.97674
0.00350000 5.89593
0.00359375 5.81829
0.00368750 5.74364
0.00378125 5.67178
0.00387500 5.60254
0.00396875 5.53576
0.00406250 5.47131
0.00425000 5.34885
0.00443750 5.23424
0.00462500 5.12666
0.00481250 5.02542
0.00500000 4.92992
0.00515625 4.85435
0.00531250 4.78213
0.00546875 4.71303
0.00562500 4.64682
0.00578125 4.58331
0.00593750 4.52232
0.00609375 4.46369
0.00625000 4.40727
0.00640625 4.35292
0.00656250 4.30052
0.00671875 4.24995
0.00687500 4.20112
0.00718750 4.10827
0.00750000 4.02127
0.00781250 3.93953
0.00812500 3.86254
0.00843750 3.78986
0.00875000 3.72110
0.00906250 3.65592
0.00937500 3.59402
0.00968750 3.53513
0.0100000 3.47902
0.0103125 3.42547
0.0106250 3.37429
0.0109375 3.32533
0.0112500 3.27841
0.0115625 3.23340
0.0118750 3.19018
0.0121875 3.14862
0.0125000 3.10863
0.0128125 3.07011
0.0131250 3.03297
0.0134375 2.99712
0.0137500 2.96251
0.0143750 2.89668
0.0150000 2.83499
0.0156250 2.77702
0.0162500 2.72241
0.0168750 2.67085
0.0175000 2.62207
0.0181250 2.57582
0.0187500 2.53189
0.0193750 2.49009
0.0200000 2.45025
0.0206625 2.41001
0.0213250 2.37165
0.0219875 2.33502
0.0226500 2.30001
0.0233125 2.26649
0.0239750 2.23437
0.0246375 2.20354
0.0253000 2.17392
0.0264578 2.12484
0.0276156 2.07887
0.0287734 2.03568
0.0299313 1.99502
0.0310891 1.95663
0.0322469 1.92031
0.0334047 1.88589
0.0345625 1.85319
0.0355274 1.82716
0.0364922 1.80215
0.0374570 1.77811
0.0384219 1.75497
0.0393867 1.73268
0.0403516 1.71118
0.0413164 1.69043
0.0422813 1.67039
0.0442109 1.63227
0.0461406 1.59654
0.0480703 1.56296
0.0500000 1.53133
0.0515625 1.50701
0.0531250 1.48376
0.0546875 1.46150
0.0562500 1.44017
0.0578125 1.41970
0.0593750 1.40003
0.0609375 1.38111
0.0625000 1.36290
0.0640625 1.34535
0.0656250 1.32843
0.0671875 1.31209
0.0687500 1.29631
0.0718750 1.26627
0.0750000 1.23810
0.0781250 1.21159
0.0812500 1.18660
0.0843750 1.16298
0.0875000 1.14062
0.0906250 1.11940
0.0937500 1.09923
0.0968750 1.08003
0.100000 1.06171
0.103125 1.04422
0.106250 1.02749
0.109375 1.01146
0.112500 0.996096
0.115625 0.981342
0.118750 0.967161
0.121875 0.953517
0.125000 0.940378
0.128125 0.927713
0.131250 0.915495
0.134375 0.903698
0.137500 0.892297
0.143750 0.870587
0.150000 0.850198
0.156250 0.831003
0.162500 0.812891
0.168750 0.795765
0.175000 0.779538
0.181250 0.764132
0.187500 0.749478
0.193750 0.735514
0.200000 0.722188
0.204688 0.712586
0.209375 0.703301
0.214063 0.694317
0.218750 0.685617
0.228125 0.668997
0.237500 0.653324
0.246875 0.638513
0.256250 0.624492
0.265625 0.611192
0.275000 0.598553
0.284375 0.586520
0.293750 0.575046
0.303125 0.564087
0.312500 0.553606
0.321875 0.543568
0.331250 0.533942
0.340625 0.524701
0.350000 0.515818
0.359375 0.507270
0.368750 0.499038
0.378125 0.491101
0.387500 0.483442
0.396875 0.476045
0.406250 0.468895
0.415625 0.461979
0.425000 0.455283
0.434375 0.448797
0.443750 0.442511
0.453125 0.436418
0.462500 0.430507
0.500000 0.408499
0.531250 0.391888
0.562500 0.376592
0.593750 0.362478
0.625000 0.349400
0.656250 0.337240
0.687500 0.325894
0.718750 0.315276
0.750000 0.305312
0.812500 0.287102
0.875000 0.270890
0.937500 0.256309
1.00000 0.243069
1.06250 0.231019
1.12500 0.220000
1.18750 0.209877
1.25000 0.200544
1.31250 0.191908
1.37500 0.183893
1.43750 0.176432
1.50000 0.169471
1.56250 0.162959
1.62500 0.156856
1.68750 0.151124
1.75000 0.145731
1.81250 0.140649
1.87500 0.135873
2.00000 0.127054
2.09375 0.121018
2.18750 0.115446
2.28125 0.110280
2.37500 0.105481
2.46875 0.101014
2.56250 0.0968502
2.65625 0.0929628
2.75000 0.0893290
2.84375 0.0859286
2.93750 0.0827439
3.03125 0.0797593
3.12500 0.0769611
3.21875 0.0743373
3.31250 0.0718775
3.40625 0.0695727
3.50000 0.0674153
3.59375 0.0653990
3.68750 0.0635189
3.78125 0.0617714
3.87500 0.0601544
3.96875 0.0586673
4.06250 0.0573114
4.15625 0.0560903
4.25000 0.0550097
4.36719 0.0538712
4.48438 0.0529944
4.60156 0.0524205
4.71875 0.0522118
4.78906 0.0522992
4.85938 0.0525748
4.92969 0.0530644
5.00000 0.0538420
5.07250 0.0549930
5.10875 0.0557254
5.14500 0.0565871
5.18125 0.0575954
5.21750 0.0587689
5.25375 0.0601316
5.29000 0.0617128
5.32625 0.0635481
5.36250 0.0656807
5.39875 0.0681627
5.43500 0.0710580
5.47125 0.0744485
5.48938 0.0763623
5.50750 0.0784431
5.52563 0.0807091
5.54375 0.0831808
5.56188 0.0858812
5.58000 0.0888369
5.60492 0.0933745
5.62984 0.0985477
5.64231 0.101408
5.65477 0.104473
5.66723 0.107763
5.67969 0.111297
5.69215 0.115100
5.70461 0.119200
5.71707 0.123626
5.72953 0.128414
5.74199 0.133602
5.75445 0.139236
5.76692 0.145368
5.77938 0.152057
5.79070 0.158680
5.80203 0.165882
5.81336 0.173729
5.82469 0.182303
5.83602 0.191695
5.84734 0.202011
5.85867 0.213376
5.87000 0.225936
5.88246 0.241343
5.88869 0.249752
5.89492 0.258684
5.90115 0.268184
5.90738 0.278298
5.91361 0.289085
5.91984 0.300602
5.92608 0.312921
5.93231 0.326113
5.93854 0.340267
5.94477 0.355475
5.95100 0.371849
5.95723 0.389505
5.96346 0.408585
5.96969 0.429237
5.97762 0.458080
5.98555 0.490173
5.99348 0.525998
5.99744 0.545484
6.00141 0.566114
6.00537 0.587986
6.00934 0.611184
6.01330 0.635805
6.01727 0.661948
6.02123 0.689736
6.02520 0.719280
6.02916 0.750707
6.03313 0.784139
6.03936 0.841095
6.04559 0.903929
6.05182 0.973262
6.05805 1.04970
6.06428 1.13389
6.07051 1.22643
6.07674 1.32794
6.08297 1.43892
6.08920 1.55984
6.09543 1.69096
6.10166 1.83244
6.10789 1.98416
6.11412 2.14581
6.12035 2.31670
6.12658 2.49590
6.13281 2.68201
6.14641 3.10342
6.16000 3.52552
6.16750 3.74789
6.17500 3.95571
6.18250 4.14329
6.19000 4.30516
6.19750 4.43637
6.20125 4.48913
6.20500 4.53275
6.20875 4.56685
6.21250 4.59117
6.21625 4.60551
6.22000 4.60975
6.22375 4.60386
6.22750 4.58791
6.23125 4.56203
6.23500 4.52646
6.23875 4.48151
6.24250 4.42754
6.25000 4.29446
6.25750 4.13150
6.26500 3.94368
6.27250 3.73646
6.28000 3.51546
6.29998 2.90006
6.30997 2.59844
6.31996 2.31226
6.32496 2.17676
6.32995 2.04705
6.33495 1.92346
6.33994 1.80622
6.34494 1.69543
6.34993 1.59112
6.35493 1.49323
6.35992 1.40163
6.36628 1.29381
6.37264 1.19538
6.37900 1.10574
6.38535 1.02430
6.39171 0.950390
6.39807 0.883393
6.40443 0.822674
6.41078 0.767635
6.41578 0.728001
6.42077 0.691283
6.42577 0.657234
6.43076 0.625635
6.43576 0.596281
6.44075 0.568984
6.44575 0.543572
6.45074 0.519886
6.45574 0.497778
6.46073 0.477127
6.46573 0.457806
6.47072 0.439709
6.47572 0.422736
6.48071 0.406798
6.48571 0.391813
6.49070 0.377708
6.49570 0.364411
6.50070 0.351869
6.51069 0.328820
6.52068 0.308168
6.53067 0.289589
6.54066 0.272813
6.55065 0.257610
6.56064 0.243788
6.57063 0.231180
6.58062 0.219646
6.59061 0.209067
6.60060 0.199337
6.61059 0.190367
6.62058 0.182076
6.63057 0.174398
6.64056 0.167273
6.65055 0.160648
6.66054 0.154475
6.67053 0.148715
6.68052 0.143330
6.69051 0.138289
6.70050 0.133561
6.71049 0.129122
6.73047 0.121018
6.74228 0.116661
6.75408 0.112590
6.76589 0.108781
6.77770 0.105210
6.80131 0.0987079
6.82492 0.0929467
6.84854 0.0878155
6.87215 0.0832228
6.89576 0.0790924
6.91938 0.0753614
6.93754 0.0727300
6.95570 0.0702840
6.97387 0.0680059
6.99203 0.0658800
7.02836 0.0620321
7.06469 0.0586471
7.10102 0.0556504
7.13734 0.0529817
7.17367 0.0505922
7.21000 0.0484420
7.24270 0.0466844
7.27539 0.0450748
7.30809 0.0435958
7.34078 0.0422320
7.37348 0.0409693
7.40617 0.0397960
7.47156 0.0376827
7.53695 0.0358341
7.60234 0.0342037
7.66774 0.0327541
7.73313 0.0314557
7.78399 0.0305351
7.83484 0.0296823
7.93656 0.0281513
8.03828 0.0268176
8.14000 0.0256356
8.25625 0.0244328
8.37250 0.0233638
8.48875 0.0224046
8.60500 0.0215364
8.72125 0.0207447
8.83750 0.0200181
8.95375 0.0193474
9.07000 0.0187252
9.18625 0.0181454
9.30250 0.0176057
9.53500 0.0166186
9.76750 0.0157349
10.0000 0.0149377
10.1563 0.0144434
10.3125 0.0139821
10.6250 0.0131342
10.9375 0.0123719
11.2500 0.0116832
11.5625 0.0110574
11.8750 0.0104858
12.1875 0.00996144
12.5000 0.00947860
12.8125 0.00903257
13.1250 0.00861936
13.4375 0.00823558
13.7500 0.00787832
14.0625 0.00754504
14.3750 0.00723355
14.6875 0.00694190
15.0000 0.00666840
15.3125 0.00641152
15.6250 0.00616991
15.9375 0.00594237
16.2500 0.00572780
16.5625 0.00552523
16.8750 0.00533430
17.5000 0.00498205
18.1250 0.00466495
18.7500 0.00437895
19.3750 0.00412013
20.0000 0.00388505
20.7031 0.00364613
21.4063 0.00342974
22.1094 0.00323453
22.8125 0.00305662
23.5156 0.00289516
24.2188 0.00274729
24.9219 0.00261359
25.6250 0.00248872
26.5625 0.00233892
27.5000 0.00220461
28.4375 0.00208382
29.3750 0.00197487
30.3125 0.00187633
31.2500 0.00178700
32.1875 0.00170582
33.1250 0.00163190
34.0625 0.00156448
35.0000 0.00150288
35.9375 0.00144652
36.8750 0.00139489
38.7500 0.00130412
40.6250 0.00122763
42.5000 0.00116318
44.3750 0.00110911
46.2500 0.00106405
48.1250 0.00102700
50.0000 0.000997377
51.5319 0.000978490
53.0637 0.000964417
54.5956 0.000955360
56.1275 0.000951812
57.6594 0.000954661
59.1912 0.000965405
60.7231 0.000986560
62.2550 0.00102244
63.7868 0.00108027
64.5528 0.00112148
65.3187 0.00117499
66.0846 0.00124490
66.8506 0.00133793
67.6165 0.00146477
68.3824 0.00164097
68.7893 0.00176422
69.1962 0.00191869
69.6032 0.00211335
70.0101 0.00236333
70.4170 0.00269124
70.8239 0.00312667
71.0273 0.00340557
71.2308 0.00373899
71.4342 0.00414075
71.6377 0.00463078
71.8172 0.00515855
71.9967 0.00580329
72.1762 0.00660096
72.3557 0.00760165
72.4455 0.00820172
72.5353 0.00888632
72.6250 0.00967288
72.7148 0.0105825
72.8045 0.0116418
72.8943 0.0128850
72.9840 0.0143571
73.0738 0.0161179
73.1516 0.0179405
73.2294 0.0201153
73.3072 0.0227432
73.3850 0.0259654
73.4239 0.0278597
73.4627 0.0299844
73.5016 0.0323815
73.5405 0.0351011
73.5794 0.0382092
73.6183 0.0417884
73.6572 0.0459502
73.6961 0.0508454
73.7350 0.0566862
73.7739 0.0637733
73.7934 0.0679155
73.8128 0.0725505
73.8323 0.0777684
73.8517 0.0836766
73.8711 0.0904164
73.8906 0.0981505
73.9100 0.107081
73.9295 0.117445
73.9489 0.129548
73.9684 0.143735
73.9878 0.160420
73.9976 0.169842
74.0073 0.180075
74.0185 0.192990
74.0297 0.207198
74.0409 0.222828
74.0522 0.240013
74.0634 0.258897
74.0746 0.279629
74.0858 0.302364
74.0970 0.327265
74.1083 0.354495
74.1195 0.384222
74.1307 0.416612
74.1419 0.451832
74.1531 0.490041
74.1644 0.531392
74.1756 0.576029
74.1868 0.624034
74.1946 0.659785
74.2025 0.697250
74.2104 0.736548
74.2182 0.777601
74.2261 0.820525
74.2339 0.865215
74.2496 0.960033
74.2653 1.06203
74.2810 1.17085
74.2967 1.28601
74.3124 1.40675
74.3289 1.53847
74.3454 1.67414
74.3783 1.95161
74.4097 2.21308
74.4254 2.33809
74.4411 2.45681
74.4576 2.57235
74.4740 2.67686
74.4905 2.76846
74.5069 2.84526
74.5189 2.89117
74.5310 2.92790
74.5430 2.95507
74.5550 2.97234
74.5700 2.97981
74.5822 2.97421
74.5944 2.95822
74.6066 2.93202
74.6188 2.89590
74.6369 2.82539
74.6549 2.73590
74.6719 2.63573
74.6890 2.52254
74.7122 2.35130
74.7354 2.16605
74.8035 1.59640
74.8283 1.39762
74.8407 1.30253
74.8531 1.21095
74.8655 1.12310
74.8779 1.03932
74.8903 0.959819
74.9026 0.884782
74.9119 0.831357
74.9212 0.780521
74.9305 0.732211
74.9398 0.686405
74.9491 0.643067
74.9584 0.602151
74.9677 0.563599
74.9770 0.527345
74.9863 0.493314
74.9956 0.461425
75.0048 0.431595
75.0141 0.403733
75.0234 0.377748
75.0327 0.353546
75.0420 0.331034
75.0513 0.310117
75.0598 0.292258
75.0683 0.275593
75.0769 0.260052
75.0854 0.245586
75.0939 0.232095
75.1024 0.219548
75.1194 0.196987
75.1365 0.177442
75.1535 0.160528
75.1705 0.145870
75.1876 0.133144
75.2046 0.122064
75.2216 0.112400
75.2387 0.103934
75.2557 0.0964875
75.2727 0.0899052
75.2898 0.0840661
75.3068 0.0788579
75.3238 0.0741897
75.3548 0.0668443
75.3858 0.0606809
75.4167 0.0554377
75.4477 0.0509231
75.4787 0.0469953
75.5096 0.0435474
75.5406 0.0404977
75.5716 0.0377824
75.6335 0.0331635
75.6955 0.0293920
75.7574 0.0262655
75.8193 0.0236412
75.8813 0.0214139
75.9432 0.0195057
76.0051 0.0178569
76.0671 0.0164212
76.1290 0.0151625
76.1910 0.0140523
76.3148 0.0121907
76.4387 0.0107008
76.5626 0.00949040
76.6865 0.00849435
76.8103 0.00766510
76.9962 0.00665598
77.1820 0.00585503
77.3678 0.00520933
77.5536 0.00468233
77.7394 0.00424678
77.9252 0.00388310
78.1110 0.00357781
78.2969 0.00331973
78.6685 0.00290043
79.0401 0.00258037
79.4117 0.00233256
79.7834 0.00213705
80.2541 0.00194383
80.7248 0.00179496
81.1956 0.00168163
81.6663 0.00158770
82.6078 0.00145107
83.5492 0.00136122
84.4907 0.00130132
85.4321 0.00126194
87.3151 0.00122553
88.9007 0.00122447
90.4863 0.00124421
92.0719 0.00128240
93.6575 0.00133915
95.2432 0.00141666
96.8288 0.00151940
98.4144 0.00165424
99.2072 0.00173717
100.000 0.00183403
100.923 0.00196737
101.846 0.00212848
102.769 0.00232590
103.693 0.00257168
104.616 0.00288119
105.077 0.00306740
105.539 0.00328274
106.000 0.00353149
106.462 0.00382101
106.924 0.00416119
107.385 0.00456479
107.789 0.00498361
108.193 0.00547981
108.597 0.00607187
109.001 0.00678284
109.404 0.00766422
109.606 0.00818389
109.808 0.00876706
110.010 0.00942533
110.212 0.0101716
110.414 0.0110229
110.616 0.0120001
110.818 0.0131301
111.020 0.0144439
111.222 0.0159831
111.424 0.0178041
111.626 0.0199908
111.727 0.0212526
111.828 0.0226458
111.929 0.0241924
112.030 0.0259119
112.131 0.0278352
112.232 0.0299915
112.340 0.0326101
112.448 0.0356050
112.556 0.0390528
112.664 0.0430479
112.772 0.0477259
112.827 0.0503705
112.881 0.0532518
112.935 0.0563997
112.989 0.0598485
113.043 0.0636383
113.097 0.0678084
113.166 0.0737525
113.234 0.0805407
113.303 0.0883575
113.337 0.0927267
113.371 0.0974297
113.405 0.102534
113.440 0.108071
113.474 0.114095
113.508 0.120648
113.542 0.127840
113.577 0.135717
113.611 0.144427
113.645 0.154046
113.685 0.166587
113.724 0.180861
113.744 0.188822
113.764 0.197345
113.784 0.206543
113.804 0.216501
113.824 0.227377
113.843 0.239180
113.863 0.252106
113.883 0.266325
113.903 0.282122
113.923 0.299583
113.943 0.319072
113.962 0.340938
113.977 0.358694
113.991 0.377994
114.006 0.399164
114.020 0.422440
114.035 0.448278
114.049 0.476623
114.063 0.507981
114.078 0.542727
114.092 0.581562
114.107 0.624417
114.121 0.672054
114.135 0.725036
114.143 0.754128
114.150 0.784403
114.157 0.816333
114.164 0.850005
114.172 0.885511
114.179 0.922946
114.186 0.962406
114.193 1.00399
114.203 1.06547
114.213 1.13085
114.223 1.20102
114.233 1.27627
114.243 1.35774
114.253 1.44412
114.263 1.53651
114.273 1.63523
114.283 1.74169
114.292 1.85409
114.302 1.97377
114.312 2.10104
114.322 2.23620
114.332 2.37954
114.342 2.53133
114.352 2.69182
114.360 2.83151
114.368 2.97564
114.376 3.12597
114.384 3.28259
114.401 3.61498
114.417 3.97317
114.433 4.35968
114.449 4.76945
114.465 5.20406
114.482 5.66239
114.502 6.25543
114.521 6.87462
114.541 7.52112
114.561 8.18229
114.601 9.53187
114.640 10.8516
114.664 11.5905
114.687 12.2729
114.707 12.7965
114.727 13.2608
114.747 13.6570
114.766 13.9776
114.779 14.1348
114.791 14.2587
114.803 14.3507
114.815 14.4084
114.830 14.4330
114.849 14.3901
114.869 14.2501
114.890 14.0158
114.908 13.7465
114.925 13.4168
114.942 13.0341
114.960 12.6024
114.974 12.2151
114.988 11.8054
115.017 10.9223
115.052 9.77103
115.086 8.58958
115.121 7.42266
115.139 6.86043
115.156 6.31684
115.174 5.79530
115.191 5.29856
115.208 4.82872
115.226 4.38726
115.243 3.97511
115.261 3.59262
115.269 3.41250
115.278 3.23973
115.287 3.07423
115.295 2.91591
115.304 2.76296
115.313 2.61872
115.322 2.48125
115.330 2.35039
115.339 2.22459
115.348 2.10649
115.356 1.99446
115.365 1.88828
115.374 1.78662
115.383 1.69159
115.391 1.60178
115.400 1.51697
115.409 1.43697
115.417 1.36154
115.426 1.29048
115.435 1.22359
115.448 1.12754
115.462 1.04090
115.475 0.961655
115.489 0.890311
115.502 0.825162
115.516 0.766576
115.529 0.713116
115.542 0.665053
115.556 0.621184
115.569 0.581718
115.583 0.545654
115.596 0.513157
115.610 0.483400
115.623 0.456519
115.637 0.431833
115.650 0.409461
115.668 0.383073
115.685 0.359619
115.702 0.338571
115.720 0.319610
115.737 0.302370
115.755 0.286811
115.772 0.272632
115.789 0.259660
115.807 0.247683
115.824 0.236714
115.842 0.226573
115.859 0.217169
115.894 0.200265
115.929 0.185493
115.962 0.172997
115.995 0.161873
116.029 0.151849
116.062 0.142825
116.095 0.134615
116.128 0.127160
116.161 0.120345
116.195 0.114095
116.228 0.108329
116.261 0.103029
116.294 0.0981135
116.328 0.0935728
116.394 0.0854206
116.461 0.0783474
116.514 0.0732629
116.568 0.0686899
116.622 0.0645531
116.676 0.0607980
116.730 0.0573719
116.784 0.0542480
116.837 0.0513857
116.891 0.0487561
116.999 0.0440941
117.106 0.0401080
117.214 0.0366694
117.322 0.0336825
117.423 0.0312132
117.524 0.0290291
117.626 0.0270866
117.727 0.0253518
117.828 0.0237951
117.930 0.0223954
118.031 0.0211303
118.132 0.0199822
118.335 0.0179807
118.538 0.0163054
118.740 0.0148911
118.943 0.0136876
119.145 0.0126555
119.348 0.0117655
119.551 0.0109928
119.753 0.0103194
119.956 0.00973053
120.159 0.00921536
120.564 0.00835546
120.969 0.00767235
121.374 0.00713039
121.780 0.00669901
122.185 0.00635607
122.539 0.00611539
122.894 0.00592132
123.249 0.00576735
123.603 0.00564837
124.312 0.00550022
125.022 0.00545439
125.579 0.00548146
126.136 0.00556028
126.693 0.00568973
127.251 0.00587058
127.808 0.00610547
128.365 0.00639884
128.922 0.00675734
129.479 0.00719012
129.859 0.00753401
130.239 0.00792288
130.619 0.00836264
130.999 0.00885903
131.379 0.00942088
131.759 0.0100621
132.139 0.0107943
132.519 0.0116332
132.798 0.0123280
133.076 0.0131004
133.355 0.0139622
133.633 0.0149272
133.912 0.0160121
134.191 0.0172370
134.469 0.0186268
134.748 0.0202120
135.052 0.0222097
135.204 0.0233320
135.356 0.0245489
135.558 0.0263378
135.761 0.0283432
135.964 0.0306011
136.166 0.0331554
136.369 0.0360662
136.572 0.0394035
136.673 0.0412590
136.774 0.0432558
136.875 0.0454083
136.977 0.0477331
137.116 0.0512469
137.255 0.0551811
137.395 0.0596062
137.534 0.0646082
137.673 0.0702930
137.743 0.0734337
137.813 0.0767920
137.882 0.0803992
137.952 0.0842692
138.022 0.0884406
138.091 0.0929324
138.180 0.0991859
138.268 0.106104
138.357 0.113806
138.446 0.122396
138.534 0.132044
138.579 0.137311
138.623 0.142910
138.667 0.148885
138.712 0.155240
138.756 0.162026
138.800 0.169283
138.870 0.181764
138.905 0.188558
138.940 0.195732
138.975 0.203360
139.009 0.211436
139.044 0.220022
139.079 0.229161
139.114 0.238933
139.149 0.249339
139.184 0.260468
139.218 0.272393
139.253 0.285232
139.288 0.299005
139.323 0.313851
139.358 0.329892
139.399 0.350621
139.440 0.373438
139.481 0.398791
139.522 0.426960
139.543 0.442317
139.563 0.458600
139.584 0.475896
139.605 0.494215
139.625 0.513853
139.646 0.534858
139.666 0.557391
139.687 0.581521
139.704 0.603633
139.722 0.627171
139.739 0.652448
139.757 0.679685
139.774 0.709148
139.791 0.741147
139.809 0.776052
139.826 0.814301
139.844 0.856669
139.861 0.903294
139.878 0.955139
139.896 1.01307
139.913 1.07812
139.922 1.11369
139.931 1.15150
139.939 1.19174
139.948 1.23462
139.957 1.28035
139.965 1.32915
139.981 1.42194
139.988 1.47221
139.996 1.52551
140.003 1.58283
140.011 1.64288
140.018 1.70664
140.026 1.77435
140.033 1.84727
140.041 1.92376
140.048 2.00505
140.056 2.09146
140.063 2.18457
140.071 2.28230
140.078 2.38619
140.086 2.49663
140.093 2.61564
140.101 2.74052
140.108 2.87323
140.116 3.01423
140.124 3.16607
140.131 3.32527
140.139 3.49429
140.146 3.67367
140.154 3.86659
140.161 4.06859
140.169 4.28271
140.176 4.50960
140.184 4.74990
140.191 5.00427
140.199 5.27340
140.206 5.55798
140.215 5.91255
140.224 6.28611
140.232 6.68374
140.241 7.10661
140.250 7.55590
140.258 8.03283
140.267 8.53859
140.276 9.07440
140.285 9.64147
140.293 10.2410
140.302 10.8741
140.311 11.5420
140.319 12.2457
140.328 12.9864
140.337 13.7651
140.345 14.5827
140.354 15.4503
140.363 16.3489
140.372 17.2890
140.380 18.2711
140.389 19.2959
140.398 20.3637
140.406 21.4749
140.415 22.6296
140.433 25.0696
140.450 27.6822
140.467 30.4632
140.485 33.4054
140.504 36.7901
140.523 40.3180
140.540 43.7084
140.558 47.1761
140.592 54.3017
140.627 61.5071
140.662 68.4848
140.687 73.2631
140.713 77.6658
140.730 80.4333
140.748 82.9203
140.765 85.1121
140.782 86.9803
140.800 88.5005
140.817 89.6524
140.837 90.4989
140.860 90.8330
140.864 90.8187
140.878 90.6102
140.892 90.1600
140.904 89.5242
140.917 88.6849
140.930 87.6304
140.943 86.3905
140.955 84.9666
140.968 83.3821
140.989 80.4163
141.010 77.0676
141.036 72.5361
141.061 67.6566
141.089 62.0403
141.117 56.2988
141.169 45.8195
141.194 40.8138
141.220 36.0547
141.233 33.7677
141.246 31.5794
141.258 29.4763
141.271 27.4617
141.284 25.5235
141.297 23.6935
141.310 21.9572
141.322 20.3147
141.333 19.0371
141.343 17.8218
141.354 16.6680
141.364 15.5745
141.375 14.5401
141.385 13.5633
141.396 12.6427
141.406 11.7843
141.417 10.9700
141.427 10.2062
141.438 9.49104
141.448 8.82854
141.459 8.20391
141.469 7.62163
141.480 7.07961
141.490 6.58036
141.497 6.28644
141.503 6.01008
141.509 5.74621
141.516 5.49437
141.522 5.25411
141.529 5.02499
141.535 4.80660
141.541 4.59850
141.548 4.39726
141.554 4.20867
141.561 4.02916
141.567 3.85835
141.574 3.69586
141.580 3.54134
141.586 3.39444
141.593 3.25480
141.599 3.12009
141.606 2.99413
141.612 2.87447
141.618 2.76082
141.625 2.65290
141.631 2.55043
141.638 2.45314
141.644 2.36077
141.657 2.18859
141.670 2.03468
141.683 1.89596
141.695 1.77087
141.703 1.70247
141.711 1.63810
141.718 1.57751
141.726 1.52118
141.733 1.46739
141.741 1.41669
141.756 1.32435
141.771 1.24149
141.786 1.16791
141.801 1.10194
141.816 1.04259
141.832 0.988700
141.847 0.940233
141.862 0.895903
141.877 0.855744
141.892 0.818741
141.907 0.784971
141.922 0.753827
141.938 0.725005
141.963 0.680562
141.989 0.641182
142.015 0.605727
142.040 0.573828
142.066 0.544721
142.091 0.518224
142.117 0.493890
142.143 0.471454
142.168 0.450615
142.194 0.431353
142.220 0.413360
142.245 0.396642
142.271 0.380955
142.297 0.366322
142.322 0.352594
142.348 0.339693
142.373 0.327506
142.399 0.316066
142.450 0.295035
142.502 0.276226
142.553 0.259368
142.604 0.244143
142.655 0.230402
142.707 0.217916
142.758 0.206584
142.805 0.197125
142.851 0.188437
142.898 0.180426
142.944 0.173030
142.991 0.166194
143.038 0.159872
143.084 0.154021
143.131 0.148603
143.177 0.143588
143.224 0.138945
143.271 0.134651
143.317 0.130683
143.410 0.123651
143.504 0.117726
143.569 0.114183
143.634 0.111122
143.699 0.108519
143.765 0.106375
143.830 0.104684
143.895 0.103462
143.960 0.102724
144.026 0.102502
144.100 0.102939
144.175 0.104204
144.249 0.106441
144.324 0.109846
144.384 0.113684
144.445 0.118741
144.506 0.125390
144.536 0.129487
144.566 0.134238
144.596 0.139786
144.627 0.146324
144.657 0.154111
144.687 0.163491
144.718 0.174930
144.748 0.189046
144.763 0.197383
144.778 0.206659
144.793 0.217065
144.808 0.228764
144.827 0.245319
144.846 0.264428
144.864 0.286757
144.883 0.312594
144.902 0.342824
144.920 0.377806
144.939 0.418458
144.948 0.441174
144.958 0.465636
144.967 0.492259
144.976 0.520606
144.986 0.551083
144.995 0.583828
145.004 0.619379
145.014 0.657130
145.023 0.697601
145.032 0.740954
145.042 0.787867
145.051 0.837514
145.060 0.890550
145.069 0.947149
145.079 1.00749
145.088 1.07175
145.097 1.14012
145.107 1.21277
145.119 1.31573
145.131 1.42597
145.143 1.54570
145.156 1.67333
145.168 1.81134
145.180 1.95780
145.192 2.11542
145.205 2.28190
145.217 2.46020
145.229 2.64759
145.241 2.84725
145.254 3.05600
145.266 3.27725
145.278 3.50730
145.290 3.74776
145.303 3.99837
145.315 4.27186
145.328 4.55566
145.354 5.15165
145.379 5.78007
145.405 6.43279
145.484 8.49289
145.510 9.12563
145.535 9.71866
145.560 10.2359
145.584 10.6917
145.610 11.0906
145.623 11.2569
145.636 11.3997
145.648 11.5179
145.661 11.6106
145.675 11.6825
145.689 11.7222
145.700 11.7305
145.704 11.7286
145.718 11.7018
145.732 11.6434
145.751 11.5161
145.756 11.4728
145.771 11.3211
145.777 11.2435
145.796 10.9974
145.814 10.7073
145.832 10.3752
145.850 10.0091
145.875 9.45925
145.900 8.86686
145.936 7.94393
145.973 6.99335
145.999 6.30524
146.026 5.63463
146.052 4.99208
146.066 4.68291
146.079 4.38606
146.097 3.99229
146.115 3.62247
146.133 3.27543
146.152 2.95178
146.161 2.79716
146.170 2.65016
146.179 2.50904
146.188 2.37375
146.197 2.24423
146.206 2.12041
146.215 2.00220
146.225 1.88948
146.233 1.78675
146.242 1.68884
146.251 1.59561
146.259 1.50695
146.268 1.42272
146.277 1.34278
146.285 1.26701
146.294 1.19525
146.303 1.12736
146.312 1.06320
146.320 1.00261
146.329 0.945460
146.338 0.891592
146.346 0.840865
146.355 0.793136
146.364 0.748763
146.372 0.706579
146.381 0.666979
146.390 0.629832
146.398 0.595008
146.407 0.562384
146.416 0.531838
146.425 0.503254
146.433 0.476519
146.451 0.428168
146.468 0.385972
146.485 0.349191
146.503 0.317324
146.517 0.294403
146.531 0.273910
146.545 0.255578
146.559 0.239170
146.573 0.224469
146.587 0.211280
146.601 0.199431
146.615 0.188838
146.644 0.170510
146.672 0.155507
146.700 0.143001
146.728 0.132524
146.756 0.123573
146.784 0.115887
146.813 0.109159
146.841 0.103248
146.869 0.0979660
146.897 0.0932386
146.953 0.0850491
147.010 0.0781734
147.066 0.0723179
147.122 0.0672541
147.179 0.0628289
147.235 0.0589285
147.291 0.0554649
147.347 0.0523693
147.404 0.0495867
147.516 0.0447906
147.629 0.0408068
147.742 0.0374485
147.854 0.0345821
147.973 0.0319729
148.093 0.0297201
148.212 0.0277533
148.331 0.0260237
148.450 0.0244875
148.570 0.0231149
148.808 0.0207629
149.047 0.0188218
149.285 0.0171949
149.524 0.0158118
149.762 0.0146219
149.987 0.0136404
150.212 0.0127736
150.438 0.0120027
150.663 0.0113141
151.113 0.0101355
151.564 0.00915592
152.014 0.00833315
152.465 0.00763466
152.915 0.00703514
153.365 0.00651581
153.948 0.00593976
154.531 0.00545110
155.114 0.00503241
155.697 0.00467082
156.280 0.00435616
156.863 0.00408072
157.446 0.00383822
158.029 0.00362368
158.930 0.00333792
159.831 0.00309791
160.732 0.00289628
161.633 0.00272283
162.533 0.00257446
163.434 0.00244711
165.236 0.00224320
166.614 0.00212375
167.992 0.00202907
169.370 0.00195507
170.747 0.00189864
172.125 0.00185718
173.503 0.00183063
176.259 0.00180867
177.955 0.00181703
179.650 0.00184083
181.346 0.00188009
183.042 0.00193536
184.738 0.00200741
186.434 0.00209825
188.129 0.00221062
189.825 0.00234751
192.157 0.00258422
193.323 0.00272796
194.489 0.00289223
195.655 0.00308006
196.820 0.00329595
197.986 0.00354488
199.152 0.00383311
200.000 0.00407196
200.794 0.00432194
201.588 0.00460160
202.382 0.00491528
203.176 0.00526850
203.970 0.00566812
204.764 0.00612155
205.559 0.00663813
206.353 0.00723474
207.323 0.00809384
207.808 0.00858803
208.294 0.00913306
208.779 0.00973641
209.264 0.0104064
209.749 0.0111534
210.234 0.0119897
210.764 0.0130215
211.293 0.0142009
211.823 0.0155577
212.352 0.0171290
212.705 0.0183191
213.058 0.0196432
213.411 0.0211208
213.764 0.0227746
214.205 0.0251423
214.425 0.0264742
214.646 0.0279181
214.866 0.0294879
215.087 0.0311978
215.308 0.0330650
215.528 0.0351085
215.771 0.0375905
216.013 0.0403508
216.256 0.0434353
216.499 0.0468941
216.741 0.0507942
216.984 0.0552103
217.227 0.0602403
217.348 0.0630219
217.469 0.0660041
217.646 0.0707430
217.822 0.0760158
217.999 0.0819119
218.175 0.0885252
218.352 0.0959885
218.440 0.100083
218.528 0.104450
218.616 0.109120
218.704 0.114112
218.793 0.119460
218.881 0.125202
219.002 0.133819
219.124 0.143366
219.245 0.153991
219.366 0.165863
219.427 0.172336
219.487 0.179189
219.548 0.186479
219.609 0.194217
219.669 0.202471
219.730 0.211255
219.791 0.220651
219.851 0.230683
219.934 0.245556
220.017 0.261926
220.100 0.280028
220.182 0.300122
220.265 0.322520
220.306 0.334714
220.348 0.347600
220.389 0.361302
220.430 0.375820
220.472 0.391299
220.513 0.407747
220.574 0.433942
220.634 0.462797
220.695 0.494813
220.756 0.530369
220.786 0.549739
220.816 0.570177
220.847 0.591841
220.877 0.614839
220.907 0.639375
220.938 0.665425
220.968 0.693222
220.998 0.722947
221.027 0.753391
221.056 0.785884
221.085 0.820895
221.114 0.858470
221.143 0.899210
221.172 0.943241
221.201 0.991359
221.230 1.04383
221.259 1.10174
221.288 1.16559
221.317 1.23692
221.346 1.31661
221.360 1.36034
221.375 1.40689
221.389 1.45655
221.404 1.50923
221.418 1.56602
221.433 1.62693
221.447 1.69239
221.461 1.76236
221.477 1.84213
221.492 1.92863
221.507 2.02259
221.522 2.12411
221.537 2.23543
221.552 2.35605
221.568 2.48865
221.583 2.63266
221.598 2.79127
221.613 2.96501
221.628 3.15542
221.643 3.36275
221.659 3.59156
221.674 3.84079
221.689 4.11585
221.704 4.41536
221.719 4.74572
221.734 5.10761
221.750 5.50379
221.765 5.93419
221.780 6.40755
221.795 6.92434
221.810 7.48790
221.825 8.09749
221.841 8.76471
221.856 9.48937
221.871 10.2752
221.886 11.1201
221.901 12.0390
221.916 13.0236
221.932 14.0905
221.947 15.2293
221.957 16.0612
221.967 16.9245
221.978 17.8369
221.988 18.7819
221.999 19.7786
222.009 20.8088
222.019 21.8825
222.029 23.0004
222.050 25.3827
222.071 27.9484
222.092 30.6990
222.112 33.6186
222.127 35.8877
222.142 38.2359
222.158 40.6915
222.173 43.2181
222.188 45.8446
222.203 48.5308
222.233 54.1255
222.264 59.9592
222.294 65.9167
222.324 71.9474
222.355 77.9110
222.385 83.7373
222.415 89.2736
222.437 93.0579
222.462 97.0250
222.487 100.617
222.517 104.428
222.548 107.490
222.578 109.743
222.603 110.954
222.622 111.453
222.640 111.613
222.654 111.515
222.674 111.031
222.694 110.153
222.722 108.273
222.745 106.165
222.769 103.594
222.795 100.268
222.820 96.4826
222.846 92.3018
222.872 87.7939
222.896 83.4630
222.919 78.9929
222.966 69.7895
223.017 59.6271
223.043 54.6797
223.069 49.9048
223.102 44.0780
223.118 41.3121
223.135 38.6473
223.151 36.0887
223.167 33.6401
223.184 31.3043
223.200 29.0833
223.213 27.4174
223.226 25.8230
223.239 24.2998
223.252 22.8472
223.265 21.4644
223.278 20.1502
223.290 18.9032
223.303 17.7310
223.316 16.6134
223.329 15.5580
223.342 14.5630
223.355 13.6261
223.368 12.7453
223.381 11.9183
223.394 11.1429
223.406 10.4223
223.419 9.74285
223.432 9.10816
223.445 8.51594
223.458 7.96395
223.471 7.44997
223.484 6.97185
223.497 6.52749
223.510 6.11485
223.522 5.73197
223.535 5.37694
223.548 5.04794
223.561 4.74323
223.574 4.46115
223.587 4.20012
223.600 3.95864
223.613 3.73695
223.624 3.55659
223.635 3.38952
223.646 3.23195
223.657 3.08597
223.668 2.94826
223.680 2.82063
223.691 2.70121
223.702 2.58942
223.713 2.48382
223.724 2.38580
223.735 2.29392
223.746 2.20773
223.757 2.12613
223.769 2.05019
223.780 1.97880
223.791 1.91165
223.813 1.78830
223.835 1.67906
223.858 1.58104
223.880 1.49351
223.902 1.41430
223.924 1.34294
223.947 1.27780
223.969 1.21860
223.995 1.15595
224.020 1.09902
224.046 1.04701
224.072 0.999291
224.098 0.955314
224.124 0.914629
224.149 0.876857
224.175 0.841811
224.201 0.808947
224.227 0.778175
224.252 0.749294
224.278 0.722234
224.304 0.696635
224.330 0.672473
224.381 0.628087
224.412 0.603961
224.442 0.581273
224.473 0.559904
224.503 0.539811
224.564 0.502812
224.625 0.469627
224.686 0.439684
224.747 0.412643
224.808 0.388091
224.869 0.365722
224.920 0.348284
224.972 0.332122
225.023 0.317055
225.075 0.303037
225.126 0.289920
225.178 0.277675
225.230 0.266181
225.281 0.255417
225.333 0.245285
225.384 0.235770
225.436 0.226790
225.487 0.218336
225.590 0.202791
225.693 0.188869
225.806 0.175271
225.918 0.163108
226.031 0.152183
226.143 0.142333
226.256 0.133421
226.368 0.125331
226.481 0.117963
226.593 0.111238
226.697 0.105561
226.800 0.100315
226.903 0.0954533
227.006 0.0909387
227.109 0.0867389
227.212 0.0828257
227.315 0.0791737
227.418 0.0757602
227.625 0.0695669
227.831 0.0641128
228.037 0.0592824
228.243 0.0549839
228.468 0.0508121
228.693 0.0471036
228.918 0.0437921
229.143 0.0408243
229.406 0.0377326
229.668 0.0349867
229.930 0.0325367
230.193 0.0303440
230.418 0.0286402
230.643 0.0270780
230.868 0.0256422
231.093 0.0243208
231.543 0.0219754
231.993 0.0199651
232.405 0.0183645
232.817 0.0169582
233.230 0.0157157
233.642 0.0146135
234.055 0.0136311
234.467 0.0127527
234.880 0.0119642
235.292 0.0112541
235.892 0.0103419
236.492 0.00955114
237.092 0.00886474
237.692 0.00826453
238.292 0.00773583
238.891 0.00727092
239.491 0.00686160
240.091 0.00650104
240.916 0.00607473
241.741 0.00571855
242.566 0.00542379
243.391 0.00518408
244.216 0.00499493
245.041 0.00485373
245.865 0.00475957
246.690 0.00471331
247.515 0.00471788
248.340 0.00477869
249.165 0.00490447
249.990 0.00510844
250.815 0.00541046
251.640 0.00584043
252.464 0.00644408
252.877 0.00683210
253.289 0.00729354
253.777 0.00795616
254.264 0.00877534
254.752 0.00979707
255.239 0.0111098
255.483 0.0119067
255.726 0.0128187
255.970 0.0138689
256.214 0.0150855
256.458 0.0165047
256.701 0.0181716
256.945 0.0201442
257.189 0.0225028
257.395 0.0248847
257.601 0.0277161
257.807 0.0311192
258.014 0.0352567
258.117 0.0376683
258.220 0.0403550
258.323 0.0433603
258.426 0.0467373
258.529 0.0505511
258.632 0.0548825
258.735 0.0598328
258.838 0.0655309
258.942 0.0721490
259.045 0.0798900
259.148 0.0890467
259.199 0.0942782
259.251 0.100011
259.302 0.106343
259.354 0.113339
259.406 0.121140
259.457 0.129859
259.509 0.139712
259.560 0.150902
259.612 0.163796
259.663 0.178788
259.691 0.188107
259.720 0.198333
259.748 0.209653
259.776 0.222253
259.804 0.236412
259.832 0.252302
259.860 0.270299
259.888 0.290796
259.916 0.314352
259.945 0.341364
259.973 0.372572
260.001 0.408760
260.029 0.450843
260.043 0.474509
260.057 0.499886
260.071 0.527495
260.085 0.557115
260.099 0.589349
260.113 0.623933
260.132 0.674772
260.151 0.730819
260.169 0.793234
260.188 0.861948
260.207 0.938334
260.226 1.02225
260.244 1.11530
260.263 1.21722
260.282 1.32988
260.291 1.39029
260.301 1.45287
260.310 1.51905
260.319 1.58829
260.338 1.73553
260.357 1.89697
260.376 2.07170
260.394 2.26237
260.413 2.46770
260.426 2.61883
260.439 2.77795
260.452 2.94527
260.465 3.12097
260.478 3.30520
260.491 3.49812
260.503 3.69984
260.516 3.90877
260.529 4.12826
260.542 4.35671
260.568 4.84049
260.594 5.35961
260.619 5.91069
260.650 6.60612
260.680 7.34223
260.711 8.11303
260.741 8.90830
260.844 11.6757
260.887 12.7646
260.929 13.7764
260.955 14.3417
260.980 14.8549
261.006 15.3128
261.032 15.7066
261.058 16.0302
261.083 16.2780
261.109 16.4471
261.135 16.5360
261.150 16.5501
261.175 16.5088
261.201 16.3888
261.220 16.2466
261.239 16.0625
261.268 15.7004
261.297 15.2504
261.326 14.7183
261.355 14.1175
261.384 13.4571
261.413 12.7487
261.461 11.5144
261.509 10.2365
261.567 8.67746
261.596 7.92347
261.625 7.19598
261.648 6.65564
261.670 6.13724
261.693 5.64266
261.715 5.17336
261.738 4.73035
261.760 4.31427
261.783 3.92538
261.805 3.56360
261.820 3.34318
261.834 3.13388
261.849 2.93548
261.864 2.74900
261.878 2.57161
261.893 2.40433
261.907 2.24683
261.922 2.09977
261.936 1.96077
261.951 1.83049
261.966 1.70858
261.980 1.59541
261.995 1.48903
262.009 1.39052
262.024 1.29816
262.038 1.21283
262.052 1.13670
262.066 1.06578
262.080 0.999788
262.094 0.938424
262.108 0.881403
262.122 0.828454
262.136 0.779314
262.150 0.733731
262.163 0.691466
262.177 0.652290
262.191 0.615986
262.205 0.582350
262.219 0.551189
262.233 0.522318
262.247 0.495568
262.261 0.470949
262.288 0.426631
262.316 0.388477
262.344 0.355550
262.372 0.327041
262.400 0.302263
262.427 0.280632
262.455 0.261655
262.483 0.244976
262.507 0.232107
262.531 0.220500
262.578 0.200254
262.626 0.183235
262.674 0.168739
262.721 0.156174
262.769 0.145201
262.817 0.135484
262.864 0.126843
262.912 0.119073
262.960 0.112075
263.007 0.105714
263.055 0.0999303
263.150 0.0897777
263.245 0.0811812
263.330 0.0745826
263.415 0.0688035
263.500 0.0637041
263.584 0.0591792
263.669 0.0551390
263.754 0.0515232
263.839 0.0482691
263.923 0.0453286
264.093 0.0402319
264.262 0.0359875
264.432 0.0324112
264.601 0.0293690
264.770 0.0267581
264.940 0.0245031
265.109 0.0225403
265.279 0.0208237
265.448 0.0193126
265.618 0.0179767
265.956 0.0157239
266.295 0.0139034
266.634 0.0124137
266.973 0.0111811
267.312 0.0101512
267.693 0.00918303
268.074 0.00837589
268.456 0.00769946
268.837 0.00713017
269.599 0.00621941
270.362 0.00554424
271.124 0.00504574
271.887 0.00468383
272.649 0.00443414
273.411 0.00428402
274.089 0.00423155
274.725 0.00425554
275.360 0.00436040
275.995 0.00456421
276.631 0.00489336
277.266 0.00539676
277.902 0.00617478
278.219 0.00671080
278.537 0.00738366
278.855 0.00823818
279.172 0.00933869
279.426 0.0104588
279.681 0.0118670
279.935 0.0136736
280.189 0.0160515
280.316 0.0175351
280.443 0.0192749
280.570 0.0213336
280.697 0.0237935
280.824 0.0267756
280.951 0.0304463
281.079 0.0350580
281.206 0.0410105
281.311 0.0475091
281.364 0.0515224
281.417 0.0562263
281.470 0.0618598
281.523 0.0687178
281.576 0.0772816
281.629 0.0881692
281.672 0.0991927
281.714 0.112904
281.756 0.130192
281.799 0.152020
281.830 0.172224
281.862 0.196417
281.894 0.225373
281.926 0.259860
281.942 0.279579
281.957 0.301094
281.973 0.324549
281.989 0.349925
282.005 0.377700
282.021 0.407881
282.037 0.440639
282.053 0.475913
282.066 0.507837
282.079 0.541648
282.092 0.577965
282.106 0.616347
282.119 0.657483
282.132 0.700860
282.145 0.746880
282.159 0.795647
282.172 0.847662
282.185 0.902240
282.198 0.960301
282.212 1.02106
282.225 1.08553
282.238 1.15281
282.251 1.22343
282.264 1.29748
282.286 1.42366
282.307 1.55892
282.321 1.65740
282.336 1.76023
282.351 1.86739
282.365 1.97805
282.394 2.21262
282.423 2.46309
282.453 2.72915
282.482 3.00726
282.511 3.29614
282.540 3.59318
282.603 4.25429
282.667 4.90143
282.709 5.30445
282.730 5.49224
282.752 5.66788
282.781 5.88955
282.810 6.08229
282.830 6.19611
282.850 6.29375
282.879 6.40728
282.887 6.43200
282.904 6.47621
282.922 6.50621
282.950 6.52420
282.969 6.51539
282.988 6.48989
283.000 6.46396
283.032 6.36653
283.063 6.22708
283.086 6.09952
283.109 5.95275
283.141 5.72167
283.172 5.46110
283.198 5.22930
283.224 4.98412
283.275 4.46664
283.356 3.63222
283.396 3.22415
283.436 2.83279
283.456 2.64495
283.476 2.46356
283.496 2.28915
283.516 2.12298
283.536 1.96370
283.556 1.81316
283.576 1.66998
283.596 1.53566
283.619 1.39184
283.642 1.25855
283.657 1.18002
283.671 1.10601
283.685 1.03586
283.700 0.969482
283.714 0.906347
283.728 0.847220
283.743 0.791532
283.757 0.739162
283.771 0.689649
283.786 0.643552
283.800 0.600383
283.814 0.560010
283.829 0.522046
283.843 0.486884
283.857 0.454121
283.871 0.423628
283.892 0.384362
283.912 0.349156
283.932 0.317332
283.952 0.288899
283.972 0.263277
283.992 0.240448
284.012 0.219924
284.032 0.201672
284.052 0.185286
284.072 0.170728
284.112 0.146056
284.152 0.126360
284.192 0.110580
284.238 0.0962350
284.284 0.0849322
284.324 0.0768903
284.364 0.0702130
284.404 0.0645845
284.444 0.0597801
284.525 0.0520019
284.605 0.0459453
284.685 0.0410580
284.765 0.0370215
284.846 0.0336197
284.926 0.0307122
285.086 0.0260069
285.247 0.0223818
285.407 0.0195158
285.567 0.0172044
285.774 0.0148314
285.980 0.0129567
286.186 0.0114499
286.393 0.0102194
286.599 0.00919745
286.805 0.00833721
287.218 0.00697854
287.630 0.00596674
288.043 0.00519327
288.455 0.00458749
288.868 0.00410374
289.326 0.00367282
289.785 0.00332749
290.701 0.00280059
291.618 0.00242464
292.535 0.00214711
293.452 0.00193543
294.369 0.00176961
296.202 0.00152940
298.219 0.00135205
300.236 0.00122724
302.253 0.00113756
304.270 0.00107277
306.287 0.00102582
308.304 0.000994262
312.338 0.000973496
315.546 0.00100579
317.151 0.00104832
318.755 0.00112066
320.360 0.00124240
321.162 0.00132768
321.964 0.00144569
322.766 0.00161018
323.568 0.00184380
324.371 0.00218814
324.772 0.00242065
325.173 0.00271569
325.540 0.00306447
325.906 0.00351701
326.273 0.00411680
326.640 0.00493285
327.006 0.00608442
327.190 0.00685162
327.373 0.00780317
327.556 0.00900667
327.740 0.0105605
327.923 0.0126261
328.106 0.0154823
328.238 0.0183288
328.370 0.0223231
328.436 0.0250196
328.502 0.0284383
328.568 0.0328935
328.634 0.0388520
328.700 0.0469955
328.765 0.0582961
328.798 0.0655459
328.831 0.0740990
328.864 0.0842474
328.897 0.0961999
328.930 0.110333
328.963 0.126897
328.996 0.146358
329.029 0.168989
329.062 0.195344
329.095 0.225688
329.128 0.260526
329.161 0.300279
329.185 0.333172
329.209 0.368984
329.234 0.408143
329.258 0.450441
329.283 0.496315
329.307 0.545447
329.331 0.598268
329.356 0.654332
329.380 0.714046
329.404 0.776819
329.429 0.843018
329.453 0.911898
329.477 0.983768
329.502 1.05773
329.550 1.21160
329.642 1.51002
329.688 1.65586
329.734 1.79329
329.760 1.86546
329.785 1.93286
329.811 1.99473
329.837 2.05037
329.868 2.10888
329.900 2.15606
329.920 2.17974
329.940 2.19832
329.964 2.21394
329.989 2.22151
330.000 2.22229
330.025 2.21809
330.049 2.20587
330.074 2.18550
330.098 2.15742
330.125 2.11917
330.151 2.07310
330.176 2.02224
330.201 1.96523
330.226 1.90270
330.251 1.83558
330.294 1.71066
330.336 1.57747
330.422 1.29942
330.467 1.15356
330.513 1.01311
330.535 0.945643
330.558 0.880375
330.580 0.817537
330.603 0.757315
330.626 0.699854
330.648 0.645263
330.671 0.593613
330.693 0.544944
330.716 0.499263
330.739 0.456550
330.761 0.416759
330.784 0.379824
330.814 0.335340
330.843 0.295560
330.873 0.259944
330.903 0.228437
330.933 0.200515
330.962 0.176051
330.992 0.154566
331.022 0.135897
331.052 0.119625
331.081 0.105579
331.111 0.0934071
331.141 0.0829516
331.171 0.0739242
331.200 0.0661899
331.260 0.0538248
331.319 0.0446482
331.379 0.0377951
331.438 0.0326070
331.498 0.0286079
331.557 0.0254596
331.617 0.0229253
331.736 0.0190944
331.817 0.0171133
331.897 0.0154776
332.059 0.0129191
332.221 0.0110076
332.383 0.00953042
332.545 0.00835978
332.707 0.00741440
333.030 0.00598927
333.354 0.00497703
333.677 0.00423263
334.001 0.00367046
334.325 0.00323705
334.725 0.00282315
335.124 0.00250083
335.524 0.00224589
335.924 0.00204182
336.724 0.00173973
337.523 0.00153425
338.323 0.00138478
339.122 0.00127072
340.722 0.00111618
342.321 0.00102092
343.920 0.000960978
347.118 0.000886144
350.774 0.000850732
354.429 0.000839651
361.130 0.000857659
367.832 0.000908268
374.533 0.000988150
381.235 0.00110223
385.499 0.00119830
389.764 0.00131824
394.028 0.00147471
396.160 0.00157389
398.293 0.00169659
400.273 0.00184868
402.253 0.00208527
403.243 0.00227266
403.738 0.00240599
404.233 0.00258754
404.728 0.00284416
405.223 0.00323705
405.470 0.00352645
405.718 0.00392127
405.965 0.00448869
406.089 0.00487859
406.212 0.00538574
406.365 0.00628532
406.441 0.00692927
406.517 0.00778419
406.593 0.00895591
406.669 0.0105954
406.746 0.0129306
406.784 0.0144523
406.822 0.0162678
406.860 0.0184427
406.898 0.0210363
406.936 0.0241199
406.974 0.0277614
407.012 0.0320651
407.050 0.0371127
407.088 0.0429986
407.126 0.0497999
407.164 0.0576471
407.202 0.0666141
407.241 0.0767830
407.279 0.0881912
407.317 0.100950
407.355 0.115060
407.393 0.130522
407.431 0.147259
407.481 0.171166
407.531 0.196971
407.581 0.224289
407.631 0.252614
407.731 0.309682
407.781 0.336907
407.831 0.362115
407.869 0.379531
407.907 0.394976
407.945 0.408131
407.983 0.418693
408.032 0.428205
408.081 0.432703
408.100 0.433062
408.133 0.431872
408.166 0.428376
408.215 0.418987
408.264 0.404962
408.319 0.384361
408.374 0.359511
408.429 0.331409
408.484 0.301151
408.571 0.251599
408.657 0.203228
408.701 0.180436
408.744 0.159027
408.787 0.139105
408.831 0.120893
408.874 0.104376
408.917 0.0896427
408.961 0.0765884
409.004 0.0651990
409.047 0.0553184
409.091 0.0468685
409.134 0.0396745
409.177 0.0336292
409.219 0.0287140
409.261 0.0246186
409.303 0.0212165
409.345 0.0184037
409.387 0.0160867
409.429 0.0141829
409.471 0.0126205
409.513 0.0113382
409.597 0.00941283
409.680 0.00809316
409.764 0.00716342
409.848 0.00648580
410.016 0.00557132
410.183 0.00497876
410.351 0.00455923
410.519 0.00424669
410.854 0.00381831
411.189 0.00354794
411.860 0.00324408
412.414 0.00311953
412.969 0.00306392
414.079 0.00303860
415.189 0.00308949
416.299 0.00318167
418.519 0.00346012
420.738 0.00383174
422.958 0.00429976
424.993 0.00482989
427.027 0.00548216
428.045 0.00586501
429.062 0.00629326
430.079 0.00677425
431.097 0.00731668
432.206 0.00799132
433.316 0.00876949
434.056 0.00935655
434.796 0.0100074
435.536 0.0107315
436.276 0.0115375
437.108 0.0125627
437.941 0.0137392
438.773 0.0150948
439.605 0.0166674
440.114 0.0177561
440.623 0.0189577
441.131 0.0202884
441.640 0.0217673
442.149 0.0234178
442.657 0.0252668
443.166 0.0273486
443.675 0.0297030
444.091 0.0318674
444.507 0.0342812
444.923 0.0369843
445.339 0.0400246
445.756 0.0434588
446.172 0.0473553
446.588 0.0518066
447.004 0.0569310
447.259 0.0604540
447.513 0.0643175
447.767 0.0685699
448.022 0.0732614
448.276 0.0784591
448.530 0.0842342
448.785 0.0906785
449.039 0.0979003
449.293 0.106034
449.548 0.115234
449.802 0.125699
449.929 0.131483
450.056 0.137676
450.183 0.144326
450.311 0.151474
450.438 0.159173
450.565 0.167472
450.692 0.176452
450.819 0.186174
450.946 0.196741
451.074 0.208237
451.201 0.220799
451.328 0.234554
451.455 0.249660
451.582 0.266291
451.709 0.284691
451.837 0.305109
451.964 0.327856
452.027 0.340216
452.091 0.353284
452.155 0.367160
452.218 0.381890
452.282 0.397547
452.345 0.414213
452.409 0.431979
452.473 0.450946
452.536 0.471229
452.600 0.492921
452.663 0.516237
452.727 0.541309
452.790 0.568326
452.854 0.597505
452.918 0.629096
452.981 0.663389
453.045 0.700724
453.108 0.741434
453.172 0.786122
453.236 0.835298
453.299 0.889664
453.363 0.950090
453.426 1.01767
453.458 1.05457
453.490 1.09382
453.522 1.13566
453.554 1.18039
453.585 1.22831
453.617 1.27966
453.649 1.33518
453.681 1.39526
453.712 1.46048
453.744 1.53156
453.776 1.60934
453.808 1.69478
453.840 1.78902
453.871 1.89306
453.903 2.00910
453.935 2.13865
453.967 2.28382
453.983 2.36301
453.999 2.44706
454.014 2.53632
454.030 2.63118
454.046 2.73208
454.062 2.83944
454.078 2.95377
454.094 3.07556
454.110 3.20536
454.126 3.34286
454.149 3.56141
454.172 3.80055
454.195 4.06339
454.218 4.35233
454.241 4.67139
454.264 5.02062
454.288 5.40432
454.311 5.82565
454.334 6.29009
454.357 6.79721
454.380 7.35268
454.403 7.96040
454.426 8.62747
454.449 9.35236
454.473 10.1422
454.496 11.0013
454.512 11.6352
454.527 12.3055
454.543 13.0137
454.559 13.7612
454.575 14.5494
454.591 15.3798
454.607 16.2536
454.623 17.1723
454.639 18.1370
454.655 19.1490
454.671 20.2093
454.686 21.3191
454.702 22.4792
454.718 23.6905
454.734 24.9536
454.750 26.2608
454.780 28.9228
454.811 31.7794
454.841 34.8293
454.871 38.0579
454.902 41.4801
454.932 45.0635
454.963 48.8190
454.993 52.7057
455.025 56.9173
455.056 61.2249
455.088 65.6250
455.120 70.0560
455.143 73.2919
455.195 80.5235
455.247 87.4949
455.279 91.5525
455.311 95.3988
455.342 98.9888
455.374 102.279
455.405 105.107
455.435 107.584
455.467 109.778
455.498 111.542
455.522 112.554
455.546 113.302
455.573 113.839
455.600 114.013
455.616 113.944
455.649 113.413
455.682 112.369
455.712 110.983
455.741 109.199
455.771 107.038
455.801 104.534
455.831 101.709
455.860 98.5928
455.890 95.2087
455.920 91.6021
455.950 87.8098
455.979 83.8827
456.039 75.7205
456.098 67.4021
456.174 56.9997
456.212 51.9974
456.250 47.2064
456.280 43.5926
456.309 40.1383
456.339 36.8543
456.369 33.7586
456.399 30.8357
456.428 28.1076
456.458 25.5562
456.488 23.1969
456.503 22.0812
456.518 21.0100
456.533 19.9827
456.547 19.0050
456.562 18.0627
456.577 17.1618
456.592 16.3011
456.607 15.4852
456.622 14.7018
456.637 13.9556
456.652 13.2453
456.666 12.5742
456.681 11.9322
456.696 11.3265
456.711 10.7480
456.726 10.2031
456.739 9.72750
456.753 9.27834
456.766 8.85113
456.780 8.44500
456.794 8.05634
456.807 7.69000
456.821 7.34225
456.834 7.01226
456.848 6.69701
456.861 6.40036
456.875 6.11918
456.888 5.85275
456.902 5.59854
456.915 5.35961
456.929 5.13338
456.942 4.91922
456.956 4.71506
456.969 4.52329
456.983 4.34182
456.996 4.17009
457.010 4.00643
457.023 3.85273
457.037 3.70727
457.050 3.56961
457.064 3.43837
457.078 3.31507
457.105 3.08774
457.132 2.88298
457.159 2.69969
457.188 2.51856
457.218 2.35744
457.248 2.21278
457.278 2.08341
457.307 1.96656
457.337 1.86138
457.367 1.76575
457.397 1.67908
457.426 1.59970
457.456 1.52725
457.486 1.46042
457.516 1.39900
457.545 1.34197
457.575 1.28920
457.605 1.23991
457.635 1.19404
457.675 1.13601
457.716 1.08273
457.756 1.03362
457.797 0.988287
457.838 0.946104
457.878 0.906834
457.919 0.870178
457.959 0.835964
458.000 0.803802
458.040 0.773586
458.081 0.745149
458.122 0.718405
458.203 0.669217
458.284 0.625134
458.343 0.595567
458.403 0.568170
458.462 0.542685
458.522 0.518932
458.581 0.496750
458.641 0.476000
458.700 0.456558
458.760 0.438313
458.819 0.421165
458.879 0.405027
458.938 0.389819
458.998 0.375469
459.117 0.349091
459.236 0.325446
459.355 0.304161
459.474 0.284929
459.593 0.267490
459.712 0.251626
459.831 0.237150
459.950 0.223905
460.069 0.211752
460.188 0.200573
460.296 0.191169
460.404 0.182417
460.512 0.174258
460.621 0.166639
460.729 0.159512
460.837 0.152835
461.053 0.140691
461.270 0.129940
461.486 0.120386
461.702 0.111849
461.919 0.104197
462.157 0.0966512
462.395 0.0899033
462.633 0.0838413
462.871 0.0783750
463.109 0.0734286
463.347 0.0689381
463.585 0.0648490
463.823 0.0611150
464.191 0.0559518
464.559 0.0514239
464.926 0.0474284
465.294 0.0438809
465.662 0.0407148
466.030 0.0378803
466.398 0.0353330
466.765 0.0330354
467.242 0.0303813
467.718 0.0280369
468.194 0.0259553
468.670 0.0240987
469.146 0.0224354
469.622 0.0209402
470.098 0.0195908
470.574 0.0183689
471.353 0.0166045
472.132 0.0150853
472.910 0.0137680
473.689 0.0126209
474.555 0.0115091
475.420 0.0105377
476.286 0.00968633
477.151 0.00893615
478.103 0.00820952
479.055 0.00757025
480.007 0.00700484
480.959 0.00650239
482.864 0.00565191
484.768 0.00496384
485.979 0.00459229
487.191 0.00426308
489.614 0.00370825
492.038 0.00326313
494.461 0.00289803
497.231 0.00255768
500.000 0.00228013
503.372 0.00200672
506.744 0.00178714
510.115 0.00160841
513.487 0.00146135
516.706 0.00134491
519.924 0.00124596
526.361 0.00109074
532.798 0.000977086
539.235 0.000893052
549.044 0.000806121
558.853 0.000754691
568.661 0.000729490
573.566 0.000725140
583.375 0.000732086
593.183 0.000759752
602.992 0.000810643
612.801 0.000891335
619.238 0.000966104
625.675 0.00106450
632.112 0.00119599
638.549 0.00137654
641.920 0.00150097
645.292 0.00165738
648.664 0.00186995
650.350 0.00202065
652.036 0.00225054
653.013 0.00247139
653.501 0.00263737
653.990 0.00288617
654.234 0.00306527
654.478 0.00331080
654.723 0.00368561
654.845 0.00396934
654.967 0.00437478
655.089 0.00498742
655.150 0.00541341
655.211 0.00595060
655.272 0.00663310
655.333 0.00749869
655.394 0.00859913
655.455 0.00998925
655.517 0.0117423
655.578 0.0139350
655.639 0.0166555
655.700 0.0199934
655.761 0.0240598
655.822 0.0289418
655.883 0.0347515
655.944 0.0415541
656.025 0.0523157
656.107 0.0650383
656.188 0.0796888
656.270 0.0960706
656.595 0.168992
656.658 0.181677
656.720 0.193005
656.782 0.202593
656.844 0.210094
656.900 0.214809
656.955 0.217525
657.000 0.218208
657.049 0.217374
657.098 0.214918
657.184 0.206915
657.269 0.194720
657.369 0.176279
657.469 0.154815
657.669 0.109389
657.745 0.0930486
657.821 0.0779939
657.897 0.0644802
657.973 0.0526551
658.050 0.0425519
658.126 0.0341118
658.202 0.0272085
658.278 0.0216727
658.354 0.0173141
658.430 0.0139392
658.506 0.0113643
658.582 0.00942425
658.658 0.00797687
658.734 0.00690412
658.811 0.00611122
658.887 0.00552424
658.982 0.00499551
659.077 0.00462333
659.267 0.00415336
659.458 0.00387639
659.648 0.00369428
660.028 0.00347096
660.409 0.00334783
661.170 0.00324959
661.931 0.00324303
663.149 0.00332770
665.584 0.00368010
668.019 0.00419690
669.541 0.00460665
671.063 0.00509938
672.586 0.00569331
674.108 0.00641597
675.782 0.00740631
676.619 0.00799985
677.456 0.00867491
678.294 0.00944733
679.131 0.0103366
679.968 0.0113679
680.805 0.0125729
681.794 0.0142757
682.784 0.0163695
683.278 0.0176055
683.773 0.0189946
684.268 0.0205625
684.762 0.0223409
685.181 0.0240401
685.600 0.0259483
686.018 0.0281013
686.437 0.0305427
686.855 0.0333279
687.274 0.0365244
687.693 0.0402179
688.111 0.0445163
688.396 0.0478650
688.682 0.0516140
688.967 0.0558297
689.253 0.0605945
689.538 0.0660117
689.823 0.0722097
690.109 0.0793490
690.394 0.0876283
690.603 0.0945760
690.813 0.102405
691.022 0.111272
691.231 0.121373
691.441 0.132952
691.650 0.146318
691.859 0.161866
691.964 0.170609
692.068 0.180101
692.221 0.195452
692.373 0.212914
692.525 0.232922
692.677 0.256022
692.753 0.268945
692.830 0.282925
692.906 0.298087
692.982 0.314580
693.058 0.332580
693.134 0.352294
693.210 0.373977
693.286 0.397943
693.339 0.415975
693.391 0.435395
693.443 0.456425
693.495 0.479295
693.548 0.504336
693.600 0.531800
693.652 0.562163
693.705 0.595964
693.757 0.633958
693.809 0.676855
693.862 0.725799
693.914 0.782148
693.966 0.847742
693.993 0.884621
694.019 0.924472
694.045 0.967954
694.071 1.01512
694.097 1.06678
694.123 1.12300
694.152 1.19071
694.180 1.26527
694.209 1.34807
694.238 1.43948
694.266 1.54119
694.295 1.65366
694.323 1.77850
694.352 1.91709
694.380 2.07153
694.409 2.24239
694.423 2.33505
694.437 2.43267
694.452 2.53549
694.466 2.64299
694.480 2.75696
694.494 2.87692
694.509 3.00317
694.523 3.13505
694.537 3.27472
694.551 3.42052
694.566 3.57485
694.580 3.73585
694.606 4.05433
694.632 4.40243
694.659 4.78238
694.685 5.19485
694.711 5.64535
694.737 6.13287
694.763 6.66359
694.789 7.23594
694.815 7.85677
694.842 8.52645
694.868 9.24739
694.894 10.0189
694.920 10.8491
694.946 11.7337
694.972 12.6816
694.999 13.6872
695.030 14.9631
695.060 16.3250
695.091 17.7783
695.122 19.3237
695.153 20.9612
695.184 22.6901
695.215 24.5084
695.246 26.4135
695.272 28.0941
695.298 29.8315
695.324 31.6222
695.351 33.4552
695.403 37.2565
695.455 41.1917
695.496 44.2979
695.536 47.4177
695.617 53.5986
695.669 57.4569
695.721 61.1147
695.755 63.3045
695.788 65.3632
695.840 68.2929
695.893 70.7810
695.945 72.7750
695.997 74.2271
696.049 75.0961
696.100 75.3777
696.114 75.3544
696.144 75.1574
696.174 74.7613
696.203 74.2056
696.231 73.4785
696.260 72.5851
696.288 71.5360
696.317 70.3314
696.345 68.9881
696.394 66.3516
696.443 63.3757
696.500 59.5736
696.557 55.4835
696.624 50.4151
696.692 45.2366
696.748 40.8729
696.805 36.6108
696.862 32.5164
696.919 28.6432
696.948 26.7996
696.976 25.0258
697.005 23.3250
697.033 21.7051
697.062 20.1563
697.090 18.6904
697.118 17.2976
697.147 15.9873
697.171 14.9144
697.196 13.8984
697.221 12.9383
697.245 12.0363
697.270 11.1837
697.294 10.3860
697.319 9.63488
697.343 8.93468
697.368 8.27781
697.393 7.66525
697.417 7.09499
697.442 6.56706
697.466 6.07510
697.491 5.62110
697.515 5.19931
697.540 4.81118
697.554 4.59860
697.568 4.39722
697.583 4.20517
697.597 4.02207
697.611 3.84640
697.625 3.68024
697.639 3.52202
697.654 3.37141
697.668 3.22710
697.682 3.09079
697.696 2.96116
697.711 2.83790
697.725 2.71993
697.739 2.60863
697.753 2.50287
697.767 2.40241
697.796 2.21575
697.824 2.04807
697.853 1.89642
697.881 1.76027
697.910 1.63715
697.938 1.52658
697.967 1.42651
697.995 1.33654
698.018 1.26925
698.042 1.20731
698.065 1.15023
698.088 1.09779
698.111 1.04916
698.135 1.00419
698.158 0.962568
698.181 0.924140
698.228 0.854983
698.274 0.795115
698.321 0.742711
698.367 0.696714
698.414 0.655877
698.461 0.619523
698.507 0.586800
698.554 0.557282
698.600 0.530381
698.647 0.505837
698.693 0.483236
698.740 0.462419
698.797 0.439004
698.854 0.417560
698.911 0.397832
698.967 0.379613
699.081 0.347039
699.195 0.318761
699.309 0.293991
699.423 0.272139
699.536 0.252737
699.650 0.235417
699.733 0.223950
699.816 0.213330
699.981 0.194316
700.147 0.177805
700.312 0.163366
700.478 0.150658
700.643 0.139409
700.809 0.129400
700.974 0.120453
701.202 0.109616
701.430 0.100204
701.657 0.0919770
701.885 0.0847417
702.112 0.0783441
702.340 0.0726590
702.568 0.0675838
702.795 0.0630360
703.126 0.0572140
703.457 0.0521850
703.788 0.0478082
704.119 0.0439759
704.450 0.0405975
704.781 0.0376049
705.112 0.0349413
705.443 0.0325611
705.899 0.0296811
706.354 0.0271837
706.809 0.0250045
707.264 0.0230924
707.719 0.0214051
708.174 0.0199096
709.085 0.0173887
709.705 0.0159606
710.326 0.0147220
710.947 0.0136430
711.568 0.0126996
712.809 0.0111335
714.050 0.00990441
715.126 0.00905104
716.202 0.00835498
717.278 0.00778907
718.354 0.00733393
719.430 0.00697673
720.505 0.00671269
721.581 0.00652755
722.657 0.00642517
723.981 0.00642180
725.471 0.00659835
726.961 0.00703719
727.706 0.00739168
728.450 0.00786607
729.195 0.00849551
729.940 0.00932908
730.602 0.0103081
731.057 0.0111582
731.512 0.0121963
731.968 0.0134758
732.423 0.0150729
732.878 0.0170968
733.333 0.0197085
733.788 0.0231527
734.016 0.0253023
734.243 0.0278261
734.471 0.0308224
734.699 0.0344195
734.926 0.0387946
735.154 0.0441985
735.381 0.0510004
735.609 0.0597813
735.723 0.0652024
735.837 0.0715608
735.950 0.0791623
736.064 0.0884820
736.131 0.0951159
736.199 0.102855
736.266 0.112054
736.333 0.123141
736.400 0.136769
736.468 0.153733
736.535 0.175172
736.602 0.202571
736.636 0.219144
736.669 0.237932
736.703 0.259313
736.737 0.283660
736.770 0.311481
736.804 0.343081
736.837 0.379057
736.871 0.419985
736.905 0.466645
736.938 0.519457
736.972 0.579304
737.006 0.647000
737.039 0.723422
737.073 0.809504
737.106 0.906236
737.140 1.01466
737.174 1.13624
737.207 1.27137
737.241 1.42155
737.274 1.58793
737.291 1.67811
737.308 1.77225
737.325 1.87101
737.342 1.97455
737.359 2.08298
737.375 2.19645
737.392 2.31509
737.409 2.43901
737.426 2.56912
737.443 2.70400
737.459 2.84451
737.476 2.99073
737.510 3.30066
737.543 3.63439
737.577 3.99341
737.611 4.37579
737.644 4.78249
737.678 5.21324
737.717 5.73977
737.756 6.29617
737.794 6.88049
737.833 7.49017
737.872 8.12206
737.911 8.77243
737.988 10.1089
738.087 11.8197
738.136 12.6543
738.185 13.4550
738.242 14.3247
738.299 15.1105
738.337 15.5898
738.376 16.0155
738.405 16.2910
738.433 16.5321
738.485 16.8800
738.516 17.0299
738.544 17.1265
738.564 17.1698
738.600 17.2018
738.627 17.1836
738.662 17.1074
738.692 16.9946
738.722 16.8392
738.750 16.6523
738.779 16.4291
738.809 16.1576
738.839 15.8510
738.882 15.3442
738.926 14.7736
738.986 13.9019
739.046 12.9503
739.100 12.0360
739.155 11.0945
739.264 9.19984
739.307 8.45979
739.351 7.74029
739.394 7.04700
739.438 6.38468
739.482 5.75709
739.525 5.16708
739.547 4.88682
739.569 4.61660
739.591 4.35656
739.612 4.10787
739.634 3.86827
739.656 3.63889
739.678 3.41969
739.700 3.21055
739.721 3.01134
739.743 2.82191
739.765 2.64207
739.787 2.47158
739.809 2.31023
739.830 2.15775
739.852 2.01387
739.874 1.87830
739.896 1.75076
739.918 1.63093
739.939 1.51851
739.961 1.41365
739.983 1.31507
740.005 1.22294
740.026 1.13697
740.048 1.05683
740.070 0.982228
740.092 0.912851
740.114 0.848410
740.135 0.788618
740.157 0.733198
740.179 0.681881
740.201 0.634408
740.223 0.590531
740.266 0.512622
740.310 0.446517
740.351 0.393527
740.392 0.348200
740.432 0.309477
740.473 0.276490
740.514 0.248254
740.555 0.224188
740.596 0.203547
740.637 0.185897
740.678 0.170688
740.718 0.157572
740.800 0.136357
740.882 0.120128
740.964 0.107422
741.045 0.0972157
741.127 0.0888384
741.209 0.0817998
741.290 0.0757728
741.454 0.0659128
741.617 0.0581192
741.759 0.0525485
741.901 0.0478185
742.042 0.0437520
742.184 0.0402278
742.467 0.0344366
742.750 0.0299048
743.034 0.0262850
743.317 0.0233431
743.600 0.0209153
743.884 0.0188852
744.189 0.0170476
744.494 0.0154974
745.104 0.0130447
745.714 0.0112111
746.324 0.00980345
747.022 0.00856064
747.719 0.00759837
748.591 0.00666887
749.462 0.00595178
750.334 0.00538933
751.206 0.00494076
752.600 0.00439218
753.995 0.00398938
755.390 0.00368700
756.785 0.00345784
759.923 0.00311524
763.061 0.00292760
766.199 0.00284026
769.337 0.00282610
773.521 0.00289362
777.705 0.00305794
781.889 0.00332387
786.073 0.00371393
789.037 0.00408780
792.001 0.00456953
794.965 0.00519363
796.447 0.00557692
797.928 0.00602002
799.846 0.00670222
801.764 0.00754080
803.681 0.00858633
805.599 0.00991205
807.081 0.0111958
808.563 0.0127839
809.304 0.0137219
810.045 0.0147760
810.786 0.0159705
811.527 0.0173317
812.486 0.0193920
813.444 0.0218735
814.403 0.0249008
814.883 0.0266704
815.362 0.0286464
815.820 0.0307564
816.277 0.0331198
816.735 0.0357803
817.193 0.0387887
817.650 0.0422100
818.108 0.0461206
818.566 0.0506195
819.023 0.0558316
819.503 0.0622389
819.982 0.0698592
820.222 0.0742220
820.461 0.0790187
820.701 0.0843088
820.941 0.0901632
821.181 0.0966687
821.420 0.103920
821.660 0.112041
821.900 0.121178
822.140 0.131515
822.379 0.143265
822.619 0.156705
822.859 0.172183
823.044 0.185820
823.229 0.201181
823.414 0.218597
823.600 0.238442
823.785 0.261229
823.878 0.273907
823.970 0.287567
824.063 0.302318
824.155 0.318284
824.248 0.335608
824.341 0.354459
824.460 0.381456
824.580 0.411830
824.700 0.446281
824.820 0.485586
824.880 0.507440
824.940 0.530926
825.000 0.556284
825.060 0.583763
825.120 0.613713
825.180 0.646401
825.239 0.682328
825.299 0.722058
825.343 0.753767
825.387 0.788196
825.430 0.825741
825.474 0.866873
825.517 0.912153
825.561 0.962250
825.605 1.01796
825.648 1.08008
825.692 1.15001
825.735 1.22895
825.779 1.31846
825.822 1.42039
825.844 1.47668
825.866 1.53690
825.888 1.60140
825.910 1.67051
825.931 1.74463
825.953 1.82415
825.975 1.90951
825.997 2.00074
826.027 2.13809
826.057 2.28974
826.087 2.45724
826.117 2.64160
826.147 2.84588
826.177 3.07065
826.207 3.31953
826.236 3.59310
826.266 3.89560
826.296 4.22873
826.326 4.59522
826.356 4.99652
826.386 5.43833
826.416 5.92081
826.446 6.45044
826.476 7.02702
826.502 7.56841
826.528 8.15110
826.554 8.77737
826.580 9.44681
826.606 10.1669
826.631 10.9373
826.657 11.7603
826.683 12.6345
826.709 13.5687
826.735 14.5616
826.761 15.6150
826.787 16.7261
826.813 17.9050
826.838 19.1487
826.864 20.4583
826.890 21.8291
826.909 22.8868
826.928 23.9811
826.966 26.2730
827.005 28.7152
827.043 31.2919
827.069 33.1211
827.095 35.0106
827.120 36.9579
827.146 38.9518
827.198 43.1036
827.250 47.4155
827.310 52.5738
827.370 57.8144
827.490 68.2101
827.549 73.1530
827.609 77.7858
827.675 82.3638
827.735 86.0074
827.795 89.0304
827.825 90.2860
827.855 91.3576
827.884 92.2354
827.914 92.9174
827.947 93.4275
827.979 93.7007
828.000 93.7511
828.011 93.7365
828.046 93.5066
828.080 92.9998
828.117 92.1786
828.153 91.0714
828.190 89.6538
828.227 87.9615
828.264 86.0173
828.301 83.8423
828.355 80.2860
828.409 76.3512
828.483 70.4421
828.557 64.1512
828.631 57.6791
828.705 51.2216
828.773 45.4845
828.840 40.0015
828.874 37.3749
828.907 34.8467
828.941 32.4087
828.975 30.0810
829.012 27.6355
829.049 25.3307
829.086 23.1620
829.123 21.1303
829.160 19.2299
829.197 17.4690
829.234 15.8393
829.252 15.0724
829.271 14.3367
829.294 13.4425
829.318 12.5968
829.342 11.7980
829.365 11.0477
829.389 10.3379
829.412 9.67016
829.436 9.04292
829.459 8.45684
829.483 7.90522
829.507 7.38890
829.530 6.90619
829.554 6.45724
829.577 6.03657
829.601 5.64612
829.624 5.28097
829.648 4.94268
829.666 4.69186
829.685 4.45644
829.703 4.23435
829.722 4.02494
829.740 3.82755
829.759 3.64157
829.777 3.46640
829.796 3.30145
829.815 3.14536
829.833 2.99928
829.852 2.86182
829.870 2.73249
829.889 2.61084
829.907 2.49641
829.926 2.38878
829.944 2.28754
829.963 2.19181
829.981 2.10226
830.000 2.01800
830.018 1.93870
830.055 1.79380
830.092 1.66527
830.129 1.55079
830.166 1.44919
830.203 1.35855
830.240 1.27747
830.277 1.20457
830.314 1.13917
830.351 1.07997
830.388 1.02650
830.426 0.977759
830.463 0.933413
830.500 0.892800
830.537 0.855470
830.574 0.820946
830.611 0.789080
830.685 0.731841
830.759 0.681882
830.833 0.637856
830.897 0.603690
830.961 0.572636
831.025 0.544175
831.089 0.518057
831.153 0.493921
831.217 0.471610
831.281 0.450861
831.344 0.431575
831.472 0.396720
831.600 0.366130
831.728 0.339097
831.856 0.315065
832.004 0.290390
832.152 0.268609
832.300 0.249260
832.449 0.231986
832.597 0.216485
832.745 0.202535
832.893 0.189924
833.041 0.178484
833.230 0.165387
833.418 0.153719
833.607 0.143272
833.795 0.133879
833.984 0.125401
834.172 0.117721
834.361 0.110740
834.549 0.104376
834.845 0.0954483
835.142 0.0876449
835.438 0.0807796
835.734 0.0747116
836.030 0.0693185
836.327 0.0645066
836.623 0.0601937
836.919 0.0563129
837.215 0.0528072
837.512 0.0496317
838.104 0.0441140
838.696 0.0395037
839.289 0.0356154
839.828 0.0325859
840.366 0.0299502
840.905 0.0276410
841.443 0.0256078
841.982 0.0238094
842.521 0.0222117
843.598 0.0195100
844.783 0.0171335
845.968 0.0152266
847.153 0.0136768
848.338 0.0124041
849.361 0.0114840
850.384 0.0106994
851.408 0.0100238
852.431 0.00944247
854.478 0.00851059
856.524 0.00782285
858.463 0.00734900
860.402 0.00701996
862.341 0.00682299
864.280 0.00675565
866.650 0.00685247
867.835 0.00699770
869.020 0.00722456
870.205 0.00755508
871.390 0.00802488
872.575 0.00868839
873.760 0.00963989
874.891 0.0109832
875.456 0.0118943
876.022 0.0130349
876.587 0.0144882
877.153 0.0163773
877.719 0.0188945
878.284 0.0223616
878.580 0.0247362
878.877 0.0276500
879.173 0.0312860
879.469 0.0359144
879.765 0.0419577
879.913 0.0457117
880.061 0.0501209
880.210 0.0553807
880.358 0.0617939
880.506 0.0698657
880.654 0.0804933
880.731 0.0875817
880.809 0.0961556
880.886 0.106729
880.964 0.119997
881.041 0.136928
881.118 0.158749
881.196 0.187162
881.235 0.204503
881.273 0.224360
881.312 0.247167
881.351 0.273223
881.389 0.303048
881.428 0.337155
881.467 0.376111
881.506 0.420538
881.544 0.471109
881.583 0.528557
881.622 0.593842
881.660 0.667463
881.699 0.750457
881.738 0.843745
881.777 0.948278
881.815 1.06503
881.854 1.19499
881.893 1.33915
881.928 1.48426
881.963 1.64229
881.999 1.81483
882.034 2.00150
882.069 2.20394
882.105 2.42145
882.140 2.65567
882.175 2.90552
882.211 3.17257
882.246 3.45530
882.282 3.75515
882.317 4.07008
882.352 4.40137
882.388 4.74643
882.423 5.10629
882.458 5.47781
882.532 6.29266
882.606 7.14070
882.754 8.86147
882.842 9.83114
882.886 10.2865
882.929 10.7137
882.970 11.0800
883.010 11.4147
883.047 11.6911
883.084 11.9346
883.118 12.1263
883.152 12.2875
883.189 12.4287
883.226 12.5305
883.266 12.5953
883.300 12.6125
883.315 12.6088
883.361 12.5558
883.400 12.4621
883.438 12.3256
883.488 12.0915
883.526 11.8624
883.565 11.5970
883.625 11.1199
883.684 10.5737
883.730 10.1164
883.776 9.63174
883.867 8.60598
884.022 6.80933
884.099 5.93670
884.138 5.51568
884.176 5.10910
884.213 4.73453
884.250 4.37502
884.287 4.03161
884.324 3.70507
884.361 3.39597
884.398 3.10464
884.435 2.83123
884.472 2.57570
884.508 2.33783
884.545 2.11728
884.582 1.91358
884.619 1.72614
884.656 1.55429
884.693 1.39730
884.730 1.25438
884.767 1.12470
884.804 1.00741
884.841 0.901675
884.877 0.806633
884.914 0.721452
884.951 0.645319
884.988 0.577448
885.025 0.517091
885.062 0.463538
885.099 0.416119
885.136 0.374211
885.173 0.337234
885.210 0.304653
885.246 0.275978
885.283 0.250761
885.320 0.228598
885.357 0.209123
885.431 0.176955
885.505 0.152035
885.579 0.132615
885.652 0.117344
885.726 0.105194
885.800 0.0953867
885.874 0.0873460
885.947 0.0806525
886.081 0.0709643
886.215 0.0634521
886.348 0.0573955
886.482 0.0523730
886.749 0.0444718
887.016 0.0385323
887.283 0.0339174
887.550 0.0302511
887.817 0.0272840
888.084 0.0248499
888.618 0.0211285
889.152 0.0184580
889.686 0.0164763
890.220 0.0149698
890.755 0.0138053
891.289 0.0128938
892.357 0.0115996
893.032 0.0110393
893.706 0.0106193
895.056 0.0100715
896.405 0.00980299
897.754 0.00973700
899.104 0.00981730
900.453 0.0100022
901.802 0.0103021
903.152 0.0107006
904.501 0.0111958
905.850 0.0117910
907.200 0.0124934
908.549 0.0133142
909.674 0.0140996
910.798 0.0149894
911.923 0.0159977
913.047 0.0171419
914.171 0.0184440
915.296 0.0199302
916.420 0.0216304
917.545 0.0235859
918.782 0.0261044
920.019 0.0290902
920.637 0.0307941
921.256 0.0326621
921.874 0.0347161
922.492 0.0369807
923.111 0.0394861
923.729 0.0422666
924.348 0.0453645
924.966 0.0488287
925.585 0.0527202
926.203 0.0571109
926.822 0.0620902
927.440 0.0677678
927.834 0.0718051
928.227 0.0762193
928.621 0.0810588
929.014 0.0863813
929.408 0.0922604
929.801 0.0987747
930.195 0.106022
930.588 0.114109
930.898 0.121145
931.207 0.128860
931.516 0.137347
931.825 0.146714
932.135 0.157090
932.444 0.168620
932.753 0.181486
933.062 0.195905
933.357 0.211360
933.653 0.228746
933.948 0.248400
934.095 0.259204
934.243 0.270729
934.391 0.283059
934.538 0.296263
934.686 0.310424
934.833 0.325641
934.981 0.342022
935.129 0.359691
935.276 0.378791
935.424 0.399469
935.578 0.423069
935.733 0.448854
935.888 0.477128
936.042 0.508227
936.197 0.542551
936.351 0.580570
936.506 0.622850
936.583 0.645795
936.661 0.670071
936.738 0.695820
936.815 0.723096
936.893 0.752063
936.970 0.782871
937.047 0.815686
937.124 0.850692
937.202 0.888101
937.279 0.928149
937.356 0.971105
937.434 1.01728
937.511 1.06702
937.588 1.12074
937.666 1.17892
937.743 1.24211
937.820 1.31097
937.897 1.38631
937.954 1.44580
938.010 1.50954
938.066 1.57816
938.122 1.65225
938.179 1.73266
938.235 1.81993
938.291 1.91518
938.319 1.96616
938.347 2.01959
938.386 2.09753
938.425 2.18078
938.463 2.27036
938.502 2.36648
938.541 2.47042
938.579 2.58249
938.618 2.70425
938.656 2.83617
938.676 2.90680
938.695 2.98017
938.714 3.05682
938.734 3.13692
938.753 3.22113
938.772 3.30879
938.792 3.40054
938.811 3.49663
938.830 3.59785
938.850 3.70341
938.869 3.81410
938.888 3.93022
938.908 4.05272
938.927 4.18067
938.946 4.31504
938.966 4.45617
938.985 4.60524
939.004 4.76110
939.024 4.92493
939.043 5.09716
939.062 5.27920
939.082 5.46965
939.101 5.66993
939.120 5.88054
939.140 6.10321
939.159 6.33619
939.178 6.58119
939.198 6.83879
939.217 7.11107
939.236 7.39584
939.256 7.69515
939.275 8.00968
939.294 8.34187
939.314 8.68902
939.333 9.05354
939.352 9.43618
939.372 9.83983
939.391 10.2611
939.410 10.7029
939.429 11.1659
939.449 11.6537
939.468 12.1618
939.487 12.6937
939.507 13.2502
939.526 13.8352
939.545 14.4436
939.565 15.0789
939.584 15.7422
939.603 16.4379
939.623 17.1596
939.642 17.9155
939.661 18.6987
939.681 19.5179
939.700 20.3655
939.719 21.2463
939.739 22.1609
939.758 23.1149
939.777 24.0990
939.816 26.1739
939.855 28.3997
939.893 30.7671
939.929 33.0551
939.964 35.4593
939.999 37.9920
940.034 40.6367
940.069 43.4050
940.104 46.2764
940.139 49.2529
940.174 52.3272
940.213 55.8198
940.252 59.4073
940.329 66.7941
940.484 81.8953
940.561 89.2615
940.638 96.2118
940.712 102.273
940.786 107.582
940.825 110.016
940.863 112.173
940.904 114.119
940.944 115.725
941.006 117.515
941.069 118.417
941.100 118.527
941.111 118.513
941.144 118.291
941.178 117.804
941.212 117.052
941.246 116.045
941.292 114.262
941.339 112.035
941.374 110.021
941.410 107.779
941.482 102.659
941.521 99.5235
941.561 96.2069
941.640 89.1200
941.719 81.6064
941.797 73.8961
941.934 60.7119
942.002 54.4091
942.070 48.4166
942.109 45.1090
942.149 41.9453
942.188 38.9169
942.228 36.0446
942.267 33.3176
942.307 30.7515
942.346 28.3337
942.385 26.0752
942.409 24.8107
942.432 23.5981
942.455 22.4368
942.479 21.3257
942.502 20.2638
942.525 19.2501
942.549 18.2833
942.572 17.3622
942.595 16.4855
942.618 15.6517
942.642 14.8596
942.665 14.1077
942.688 13.3945
942.712 12.7185
942.735 12.0784
942.758 11.4752
942.778 10.9862
942.798 10.5224
942.817 10.0804
942.837 9.65934
942.857 9.25639
942.877 8.87479
942.896 8.51166
942.916 8.16621
942.936 7.83604
942.955 7.52373
942.975 7.22685
942.995 6.94468
943.015 6.67655
943.034 6.42178
943.074 5.94978
943.113 5.52278
943.153 5.13844
943.192 4.79061
943.231 4.47725
943.271 4.19326
943.310 3.93691
943.350 3.70460
943.389 3.49374
943.429 3.30156
943.468 3.12694
943.507 2.96754
943.547 2.82170
943.586 2.68762
943.626 2.56469
943.665 2.45139
943.705 2.34672
943.744 2.24954
943.783 2.15954
943.823 2.07576
943.862 1.99760
943.902 1.92433
943.941 1.85584
943.981 1.79151
944.020 1.73097
944.085 1.63904
944.149 1.55529
944.214 1.47842
944.278 1.40781
944.343 1.34253
944.407 1.28216
944.472 1.22609
944.536 1.17388
944.601 1.12508
944.665 1.07951
944.730 1.03680
944.794 0.996713
944.859 0.958957
944.923 0.923455
944.988 0.889971
945.052 0.858347
945.131 0.821986
945.210 0.787966
945.289 0.756082
945.368 0.726190
945.447 0.698053
945.526 0.671597
945.605 0.646625
945.683 0.623084
945.841 0.579734
945.999 0.540871
946.157 0.505864
946.314 0.474209
946.486 0.442996
946.658 0.414816
946.831 0.389283
947.003 0.366085
947.175 0.344917
947.347 0.325569
947.519 0.307815
947.691 0.291500
947.849 0.277659
948.006 0.264797
948.164 0.252808
948.322 0.241628
948.480 0.231173
948.637 0.221392
948.953 0.203618
949.268 0.187911
949.584 0.173966
949.899 0.161529
950.215 0.150392
950.530 0.140373
950.846 0.131330
951.161 0.123139
951.476 0.115699
951.792 0.108915
952.107 0.102718
952.423 0.0970372
952.738 0.0918210
953.255 0.0841574
953.771 0.0774274
954.287 0.0714792
954.803 0.0661919
955.319 0.0614723
955.836 0.0572436
956.352 0.0534408
956.868 0.0500086
957.499 0.0462490
958.130 0.0429035
958.761 0.0399128
959.392 0.0372287
960.023 0.0348102
960.654 0.0326242
961.284 0.0306415
961.915 0.0288378
962.661 0.0269083
963.407 0.0251710
964.152 0.0236010
964.898 0.0221780
966.389 0.0197095
967.880 0.0176430
969.142 0.0161472
970.404 0.0148442
971.666 0.0137030
972.928 0.0126987
974.190 0.0118112
975.451 0.0110242
977.975 0.00970004
980.499 0.00864426
983.023 0.00780100
985.546 0.00713286
988.070 0.00661693
991.282 0.00616707
992.888 0.00603691
994.494 0.00597543
997.247 0.00606994
998.624 0.00626013
1000.00 0.00659137
1001.49 0.00719268
1002.99 0.00820906
1003.73 0.00896561
1004.48 0.00998408
1005.23 0.0113942
1005.97 0.0134048
1006.35 0.0147495
1006.72 0.0164083
1007.10 0.0184991
1007.47 0.0211739
1007.84 0.0247054
1008.22 0.0295036
1008.40 0.0326113
1008.59 0.0363631
1008.78 0.0410564
1008.96 0.0470951
1009.15 0.0554467
1009.24 0.0610433
1009.34 0.0679901
1009.43 0.0770253
1009.52 0.0887957
1009.62 0.104571
1009.71 0.126011
1009.76 0.139696
1009.80 0.155763
1009.85 0.174632
1009.90 0.196279
1009.94 0.222184
1009.99 0.251838
1010.04 0.287213
1010.08 0.327542
1010.13 0.375416
1010.18 0.430957
1010.22 0.495174
1010.27 0.567468
1010.32 0.652111
1010.36 0.746651
1010.41 0.856419
1010.45 0.977954
1010.50 1.10837
1010.54 1.25366
1010.59 1.41482
1010.63 1.59277
1010.67 1.78833
1010.70 1.89295
1010.72 2.00223
1010.74 2.11623
1010.76 2.23502
1010.81 2.48116
1010.85 2.75228
1010.89 3.04283
1010.94 3.35252
1010.98 3.67309
1011.02 4.01857
1011.07 4.38052
1011.11 4.75739
1011.16 5.13829
1011.24 5.89143
1011.32 6.65523
1011.40 7.42797
1011.48 8.16796
1011.53 8.55162
1011.57 8.91736
1011.61 9.26129
1011.66 9.57963
1011.72 9.95412
1011.77 10.2704
1011.84 10.5440
1011.88 10.6905
1011.90 10.7317
1011.93 10.7918
1011.96 10.8254
1011.99 10.8416
1012.00 10.8424
1012.03 10.8338
1012.03 10.8311
1012.04 10.8237
1012.05 10.8144
1012.07 10.7904
1012.11 10.7158
1012.14 10.6124
1012.20 10.3742
1012.25 10.1369
1012.30 9.86338
1012.34 9.61500
1012.37 9.35196
1012.45 8.77170
1012.52 8.15212
1012.59 7.50488
1012.73 6.16692
1012.81 5.49653
1012.88 4.85782
1012.91 4.54579
1012.95 4.25148
1012.98 3.95900
1013.02 3.68534
1013.05 3.41551
1013.09 3.16496
1013.13 2.91974
1013.16 2.69370
1013.20 2.47403
1013.23 2.27295
1013.27 2.07887
1013.30 1.90238
1013.34 1.73315
1013.37 1.57604
1013.41 1.43066
1013.45 1.30012
1013.48 1.17648
1013.52 1.06611
1013.55 0.962185
1013.59 0.869934
1013.62 0.783534
1013.66 0.705176
1013.70 0.634297
1013.73 0.572032
1013.77 0.514297
1013.80 0.463812
1013.84 0.417206
1013.87 0.376623
1013.91 0.339304
1013.94 0.306055
1013.98 0.276480
1014.02 0.250901
1014.09 0.207355
1014.16 0.173108
1014.23 0.145899
1014.30 0.124885
1014.37 0.108362
1014.44 0.0953111
1014.52 0.0844104
1014.59 0.0757590
1014.74 0.0631936
1014.89 0.0545463
1015.04 0.0482138
1015.19 0.0432925
1015.34 0.0393632
1015.64 0.0333732
1015.94 0.0290048
1016.23 0.0257317
1016.53 0.0232127
1016.83 0.0212641
1017.37 0.0187457
1017.92 0.0171765
1018.46 0.0162985
1019.00 0.0159943
1019.44 0.0161365
1019.87 0.0166344
1020.30 0.0175338
1020.74 0.0189227
1021.17 0.0209604
1021.61 0.0239023
1022.04 0.0282138
1022.26 0.0311281
1022.47 0.0347703
1022.69 0.0394589
1022.91 0.0456985
1023.13 0.0546727
1023.24 0.0609628
1023.34 0.0691141
1023.45 0.0802330
1023.56 0.0955529
1023.62 0.105652
1023.67 0.117529
1023.72 0.131772
1023.78 0.148882
1023.83 0.169866
1023.89 0.194664
1023.94 0.224429
1023.99 0.260083
1024.05 0.303541
1024.10 0.354424
1024.16 0.414774
1024.21 0.486044
1024.26 0.564796
1024.31 0.656105
1024.36 0.761457
1024.39 0.821064
1024.42 0.882389
1024.44 0.950538
1024.47 1.02046
1024.49 1.09794
1024.52 1.17722
1024.54 1.26481
1024.57 1.35416
1024.59 1.44869
1024.62 1.54858
1024.64 1.65828
1024.67 1.76949
1024.70 1.89125
1024.72 2.01429
1024.75 2.14856
1024.77 2.28379
1024.80 2.43086
1024.82 2.57848
1024.85 2.73846
1024.87 2.89847
1024.90 3.07126
1024.92 3.24346
1024.98 3.61265
1025.03 3.99685
1025.08 4.40957
1025.13 4.84092
1025.18 5.28786
1025.23 5.74681
1025.33 6.68361
1025.43 7.60351
1025.48 8.05150
1025.53 8.48068
1025.59 8.88518
1025.64 9.25922
1025.70 9.65892
1025.76 9.99845
1025.80 10.1761
1025.83 10.3224
1025.88 10.4680
1025.90 10.5159
1025.93 10.5732
1025.96 10.6060
1025.99 10.6239
1026.00 10.6251
1026.03 10.6167
1026.03 10.6141
1026.04 10.6070
1026.05 10.5980
1026.07 10.5763
1026.10 10.5094
1026.14 10.4148
1026.17 10.3044
1026.20 10.1764
1026.25 9.94763
1026.30 9.67760
1026.34 9.45024
1026.37 9.20354
1026.44 8.66754
1026.51 8.07869
1026.58 7.45275
1026.73 6.15173
1026.80 5.50542
1026.87 4.87858
1026.94 4.28132
1026.98 3.99241
1027.01 3.72159
1027.05 3.45406
1027.08 3.20519
1027.12 2.96115
1027.15 2.73576
1027.19 2.51632
1027.22 2.31505
1027.26 2.12565
1027.29 1.94798
1027.33 1.76357
1027.37 1.59310
1027.41 1.43610
1027.45 1.29556
1027.49 1.16351
1027.53 1.04318
1027.57 0.933883
1027.60 0.837360
1027.64 0.747847
1027.68 0.667320
1027.72 0.595091
1027.76 0.532060
1027.80 0.474275
1027.84 0.422868
1027.88 0.377248
1027.91 0.337833
1027.95 0.302035
1027.99 0.270468
1028.03 0.242682
1028.07 0.218848
1028.11 0.197339
1028.15 0.178476
1028.22 0.147815
1028.30 0.123940
1028.38 0.105789
1028.46 0.0915581
1028.53 0.0805961
1028.61 0.0718319
1028.69 0.0649084
1028.84 0.0545473
1029.00 0.0472232
1029.15 0.0417095
1029.31 0.0373481
1029.46 0.0337752
1029.77 0.0282217
1030.08 0.0240949
1030.39 0.0209187
1030.70 0.0184110
1031.01 0.0163953
1031.43 0.0142452
1031.84 0.0125572
1032.25 0.0112020
1032.67 0.0100963
1033.49 0.00841435
1034.32 0.00720852
1035.14 0.00631053
1035.97 0.00562472
1037.00 0.00496762
1038.04 0.00446313
1040.10 0.00375251
1041.96 0.00332476
1043.82 0.00302015
1045.68 0.00279834
1047.54 0.00263724
1050.84 0.00245856
1054.15 0.00239220
1055.80 0.00240033
1059.52 0.00254144
1061.38 0.00269950
1063.24 0.00294769
1065.10 0.00333347
1066.96 0.00393888
1067.89 0.00436436
1068.82 0.00492963
1069.75 0.00568999
1070.68 0.00673439
1071.30 0.00766140
1071.92 0.00884858
1072.54 0.0104074
1073.16 0.0125260
1073.78 0.0155243
1074.09 0.0175093
1074.39 0.0199433
1074.70 0.0229998
1075.01 0.0269123
1075.32 0.0320723
1075.63 0.0391586
1075.85 0.0461733
1075.96 0.0506754
1076.07 0.0561717
1076.18 0.0630759
1076.29 0.0720214
1076.40 0.0839712
1076.51 0.100195
1076.57 0.110661
1076.62 0.123096
1076.68 0.137912
1076.73 0.155594
1076.79 0.176717
1076.84 0.201945
1076.90 0.232047
1076.95 0.267196
1077.01 0.309673
1077.06 0.359997
1077.12 0.419405
1077.17 0.489249
1077.23 0.570993
1077.28 0.666194
1077.31 0.720352
1077.34 0.776487
1077.36 0.836664
1077.39 0.901083
1077.44 1.02118
1077.48 1.15208
1077.53 1.29715
1077.57 1.45721
1077.62 1.63304
1077.66 1.82528
1077.71 2.03449
1077.75 2.26106
1077.80 2.51082
1077.84 2.77295
1077.89 3.05247
1077.93 3.34891
1077.98 3.66157
1078.02 3.98943
1078.07 4.33120
1078.11 4.68529
1078.20 5.37244
1078.28 6.08067
1078.36 6.79177
1078.45 7.48501
1078.50 7.87232
1078.55 8.23410
1078.59 8.58099
1078.64 8.89466
1078.70 9.25511
1078.77 9.55369
1078.80 9.69737
1078.84 9.81958
1078.88 9.95297
1078.92 10.0220
1078.97 10.0753
1079.00 10.0845
1079.00 10.0845
1079.01 10.0836
1079.02 10.0819
1079.03 10.0759
1079.06 10.0541
1079.10 9.98890
1079.14 9.88538
1079.20 9.70547
1079.24 9.52314
1079.29 9.30889
1079.35 8.94523
1079.41 8.53437
1079.47 8.13230
1079.52 7.71025
1079.63 6.81115
1079.74 5.87191
1079.86 4.94730
1079.91 4.49900
1079.97 4.07592
1080.02 3.67301
1080.08 3.29271
1080.11 3.08259
1080.14 2.88099
1080.17 2.68810
1080.20 2.50965
1080.24 2.33420
1080.27 2.16764
1080.30 2.00993
1080.33 1.86548
1080.36 1.72485
1080.39 1.59265
1080.43 1.46867
1080.46 1.35617
1080.49 1.24764
1080.52 1.14960
1080.55 1.05541
1080.58 0.970677
1080.62 0.889613
1080.65 0.814726
1080.68 0.745683
1080.71 0.684055
1080.74 0.625545
1080.77 0.573506
1080.81 0.524271
1080.84 0.480626
1080.87 0.439464
1080.90 0.401968
1080.96 0.337804
1081.03 0.284825
1081.09 0.241270
1081.13 0.217791
1081.17 0.197126
1081.25 0.163352
1081.33 0.137174
1081.41 0.116858
1081.49 0.100848
1081.57 0.0884576
1081.64 0.0786322
1081.72 0.0707422
1081.88 0.0589302
1082.04 0.0506456
1082.20 0.0444291
1082.36 0.0395331
1082.67 0.0321819
1082.99 0.0268922
1083.31 0.0229054
1083.62 0.0198142
1084.10 0.0162956
1084.57 0.0136962
1085.05 0.0117193
1085.52 0.0101806
1086.00 0.00895961
1086.47 0.00797538
1087.42 0.00650637
1088.37 0.00546728
1089.32 0.00470098
1090.27 0.00412425
1091.22 0.00368036
1093.00 0.00309076
1094.77 0.00270173
1096.54 0.00242481
1098.32 0.00222996
1100.09 0.00209248
1101.86 0.00199753
1105.41 0.00190118
1107.44 0.00189082
1110.48 0.00192963
1113.52 0.00203438
1115.80 0.00216490
1118.08 0.00235320
1120.36 0.00261711
1122.64 0.00298713
1124.16 0.00331658
1125.68 0.00373825
1127.20 0.00428651
1128.72 0.00501022
1130.24 0.00599491
1131.63 0.00724857
1132.33 0.00805488
1133.02 0.00902205
1133.72 0.0101994
1134.42 0.0116479
1135.11 0.0134627
1135.81 0.0157685
1136.57 0.0190871
1136.95 0.0211822
1137.33 0.0236659
1137.71 0.0266413
1138.09 0.0302485
1138.47 0.0346828
1138.85 0.0402241
1139.12 0.0450533
1139.39 0.0508322
1139.66 0.0578666
1139.93 0.0665737
1140.20 0.0776327
1140.33 0.0843340
1140.47 0.0919980
1140.60 0.101011
1140.74 0.111632
1140.87 0.124628
1141.00 0.140748
1141.08 0.152492
1141.16 0.166169
1141.24 0.182502
1141.32 0.202261
1141.40 0.226793
1141.48 0.256809
1141.56 0.294267
1141.64 0.341301
1141.68 0.369595
1141.72 0.401426
1141.76 0.437242
1141.80 0.476474
1141.84 0.521666
1141.88 0.571122
1141.92 0.628011
1141.96 0.690150
1142.00 0.761462
1142.03 0.839144
1142.07 0.928018
1142.11 1.02450
1142.15 1.13446
1142.19 1.25334
1142.23 1.38825
1142.27 1.53343
1142.31 1.70600
1142.35 1.89185
1142.40 2.10125
1142.44 2.32539
1142.46 2.44810
1142.48 2.57635
1142.52 2.84322
1142.54 2.98859
1142.56 3.14000
1142.60 3.45340
1142.65 3.79945
1142.69 4.16222
1142.73 4.55976
1142.77 4.97328
1142.81 5.42286
1142.85 5.88672
1142.89 6.38682
1142.94 6.89839
1142.97 7.36562
1143.01 7.84864
1143.08 8.84248
1143.15 9.89573
1143.22 10.9642
1143.34 12.7723
1143.40 13.6519
1143.46 14.5036
1143.54 15.6290
1143.58 16.1558
1143.62 16.6366
1143.67 17.1110
1143.71 17.5288
1143.76 17.9049
1143.80 18.2187
1143.85 18.5375
1143.90 18.7226
1143.95 18.8565
1144.00 18.9020
1144.01 18.8997
1144.05 18.8665
1144.08 18.7940
1144.12 18.6708
1144.15 18.5025
1144.19 18.2904
1144.23 18.0360
1144.26 17.7412
1144.30 17.4083
1144.36 16.8589
1144.41 16.2417
1144.48 15.2893
1144.56 14.2500
1144.62 13.3146
1144.69 12.3522
1144.82 10.4094
1144.90 9.10738
1144.95 8.47831
1144.99 7.86816
1145.04 7.27962
1145.08 6.71492
1145.12 6.17589
1145.17 5.66391
1145.21 5.24429
1145.24 4.85619
1145.28 4.48852
1145.32 4.14128
1145.35 3.81437
1145.39 3.50751
1145.43 3.22034
1145.46 2.95237
1145.50 2.69652
1145.54 2.46560
1145.58 2.25190
1145.61 2.05465
1145.65 1.87305
1145.69 1.70626
1145.72 1.55344
1145.76 1.41374
1145.79 1.29952
1145.83 1.19752
1145.86 1.10362
1145.89 1.01729
1145.92 0.935665
1145.96 0.863192
1145.99 0.796825
1146.02 0.736116
1146.05 0.678986
1146.08 0.628484
1146.12 0.582416
1146.15 0.540423
1146.21 0.467333
1146.28 0.406765
1146.34 0.355891
1146.41 0.314440
1146.47 0.280023
1146.53 0.251355
1146.60 0.227028
1146.66 0.206903
1146.73 0.189856
1146.79 0.175306
1146.88 0.158534
1146.97 0.144668
1147.05 0.133016
1147.14 0.123069
1147.32 0.106905
1147.49 0.0942918
1147.67 0.0839965
1147.85 0.0754484
1148.02 0.0682307
1148.20 0.0620924
1148.49 0.0534729
1148.79 0.0466162
1149.09 0.0410244
1149.39 0.0364267
1149.68 0.0325726
1149.98 0.0293288
1150.28 0.0265540
1150.58 0.0241764
1151.12 0.0206219
1151.66 0.0178219
1152.20 0.0155727
1152.74 0.0137381
1153.28 0.0122225
1153.82 0.0109562
1154.90 0.00897810
1155.99 0.00751829
1157.07 0.00641165
1157.93 0.00571050
1159.45 0.00475605
1160.96 0.00404590
1162.48 0.00350544
1163.99 0.00308530
1165.94 0.00266984
1167.89 0.00235458
1169.83 0.00211051
1171.78 0.00191950
1174.38 0.00172376
1176.97 0.00157703
1181.30 0.00141023
1185.63 0.00131181
1189.09 0.00126894
1192.55 0.00125160
1199.48 0.00128709
1205.54 0.00139928
1211.59 0.00161066
1215.92 0.00184958
1220.25 0.00219961
1223.71 0.00260156
1227.17 0.00317373
1229.55 0.00371561
1231.93 0.00443840
1234.31 0.00543040
1235.50 0.00607043
1236.69 0.00684114
1238.10 0.00797100
1239.51 0.00942257
1240.91 0.0113431
1241.62 0.0125411
1242.32 0.0139469
1242.91 0.0153368
1243.51 0.0169521
1244.10 0.0188448
1244.70 0.0210823
1245.29 0.0237543
1245.89 0.0269803
1246.48 0.0309237
1247.08 0.0358166
1247.67 0.0420027
1247.97 0.0457390
1248.27 0.0499956
1248.57 0.0549097
1248.86 0.0605854
1249.16 0.0672389
1249.46 0.0750579
1249.74 0.0839277
1250.03 0.0945279
1250.31 0.107358
1250.60 0.123125
1250.74 0.132416
1250.88 0.142868
1251.02 0.154701
1251.16 0.168202
1251.31 0.183752
1251.45 0.201873
1251.59 0.223308
1251.73 0.249147
1251.81 0.265102
1251.88 0.282806
1251.96 0.303148
1252.03 0.326094
1252.10 0.352911
1252.18 0.383684
1252.25 0.419733
1252.33 0.462281
1252.40 0.513586
1252.48 0.574147
1252.51 0.609801
1252.55 0.647913
1252.59 0.689732
1252.62 0.735641
1252.66 0.787485
1252.70 0.842996
1252.74 0.903963
1252.77 0.970908
1252.81 1.04439
1252.85 1.12501
1252.88 1.21341
1252.92 1.31025
1252.96 1.42827
1253.00 1.55855
1253.04 1.70213
1253.08 1.85609
1253.13 2.02924
1253.17 2.21423
1253.21 2.42146
1253.25 2.64196
1253.28 2.86919
1253.32 3.10797
1253.36 3.36488
1253.40 3.64070
1253.43 3.94446
1253.47 4.26086
1253.51 4.59825
1253.54 4.95715
1253.58 5.34861
1253.62 5.75234
1253.66 6.17853
1253.69 6.62725
1253.73 7.09838
1253.77 7.59166
1253.80 8.10664
1253.84 8.64269
1253.88 9.21429
1253.92 9.79029
1253.99 10.9946
1254.07 12.2752
1254.14 13.5818
1254.25 15.6508
1254.37 17.6901
1254.44 18.9418
1254.52 20.1141
1254.59 21.1394
1254.66 22.0443
1254.70 22.5039
1254.74 22.9034
1254.81 23.5053
1254.85 23.7520
1254.89 23.9369
1254.94 24.0913
1254.99 24.1510
1255.00 24.1521
1255.01 24.1503
1255.04 24.1267
1255.06 24.0753
1255.12 23.8948
1255.17 23.6172
1255.22 23.2518
1255.27 22.7890
1255.32 22.2412
1255.38 21.6025
1255.43 20.9049
1255.51 19.6987
1255.59 18.3939
1255.69 16.5674
1255.80 14.6995
1255.90 12.8234
1256.01 11.0339
1256.06 10.1636
1256.11 9.34372
1256.17 8.54641
1256.22 7.80473
1256.27 7.09234
1256.32 6.43747
1256.37 5.82691
1256.43 5.26068
1256.45 4.98400
1256.48 4.72862
1256.51 4.48393
1256.53 4.24977
1256.56 4.02594
1256.58 3.81225
1256.61 3.60845
1256.64 3.41431
1256.66 3.22264
1256.69 3.04736
1256.71 2.88093
1256.74 2.72304
1256.77 2.57340
1256.79 2.43172
1256.82 2.29770
1256.84 2.17103
1256.89 1.98550
1256.93 1.82028
1256.97 1.66597
1257.01 1.52904
1257.05 1.40157
1257.09 1.28880
1257.13 1.18652
1257.17 1.09388
1257.21 1.00804
1257.25 0.932388
1257.29 0.862388
1257.33 0.800757
1257.37 0.743757
1257.41 0.693578
1257.45 0.648233
1257.49 0.607238
1257.54 0.558878
1257.60 0.517227
1257.65 0.479899
1257.70 0.447638
1257.75 0.418614
1257.81 0.393431
1257.86 0.371095
1257.91 0.351257
1258.01 0.317675
1258.12 0.291539
1258.22 0.271180
1258.33 0.256327
1258.41 0.247833
1258.50 0.242799
1258.58 0.241218
1258.67 0.243317
1258.76 0.249401
1258.84 0.259620
1258.93 0.274524
1259.01 0.294062
1259.10 0.318957
1259.18 0.348828
1259.27 0.384493
1259.35 0.425127
1259.44 0.471565
1259.52 0.522467
1259.61 0.578625
1259.70 0.638189
1259.77 0.694320
1259.85 0.752595
1260.00 0.873104
1260.00 1.63197
1320.00 1.58218
1380.00 1.53602
1500.00 1.45303
1600.00 1.39467
1700.00 1.34198
1850.00 1.27366
2000.00 1.21375
2125.00 1.17148
2250.00 1.13298
2375.00 1.09773
2500.00 1.06530
2625.00 1.03602
2750.00 1.00884
3000.00 0.959918
3250.00 0.921178
3500.00 0.886706
3750.00 0.855853
4000.00 0.827965
4250.00 0.803576
4500.00 0.781241
4750.00 0.760684
5000.00 0.741683
5500.00 0.708173
6000.00 0.678904
6500.00 0.653303
7000.00 0.630463
7500.00 0.609600
8000.00 0.590710
8500.00 0.573106
9000.00 0.556990
9500.00 0.542162
10000.0 0.528461
10625.0 0.511978
11250.0 0.496910
11875.0 0.483064
12500.0 0.470286
13750.0 0.446591
15000.0 0.426003
16000.0 0.403415
17000.0 0.383289
17750.0 0.371915
18500.0 0.361328
20000.0 0.342197
21025.7 0.332487
22051.4 0.323496
24102.8 0.307350
24158.8 0.306939
24214.9 0.306530
24327.1 0.305716
24551.4 0.304105
24775.7 0.302517
25000.0 0.300952
25625.0 0.292882
26250.0 0.285216
26875.0 0.277923
27500.0 0.270979
28750.0 0.258039
30000.0 0.246229
31250.0 0.235218
32500.0 0.225102
33750.0 0.215780
35000.0 0.207162
36250.0 0.199558
37500.0 0.192478
38750.0 0.185869
40000.0 0.179686
41250.0 0.173838
42500.0 0.168347
45000.0 0.158312
47500.0 0.149371
50000.0 0.141356
52500.0 0.135105
55000.0 0.129402
57500.0 0.124177
60000.0 0.119373
62500.0 0.115269
65000.0 0.111459
67500.0 0.107911
70000.0 0.104600
75000.0 0.0989376
80000.0 0.0939187
85129.6 0.0903275
90259.2 0.0870721
90563.6 0.0868884
90868.0 0.0867056
91476.8 0.0863432
92085.6 0.0859846
92694.4 0.0856299
93912.0 0.0849318
95129.6 0.0842482
96347.1 0.0835787
97564.7 0.0829228
99999.9 0.0816502
100000 0.0813974
100391 0.0812318
100781 0.0810673
101563 0.0807412
102344 0.0804189
103125 0.0801003
104688 0.0794740
106250 0.0788618
107813 0.0782631
109375 0.0776774
112500 0.0765435
115625 0.0754565
118750 0.0744134
121875 0.0734112
125000 0.0724474
128125 0.0715195
131250 0.0706255
137500 0.0689311
143750 0.0673501
150000 0.0658703
151563 0.0656245
153125 0.0653821
156250 0.0649073
159375 0.0644452
162500 0.0639953
165625 0.0635570
168750 0.0631298
175000 0.0623069
181250 0.0615230
187500 0.0607751
193750 0.0600603
200000 0.0593763
203125 0.0591249
206250 0.0588784
212500 0.0583994
218750 0.0579381
225000 0.0574932
231250 0.0570637
237500 0.0566488
243750 0.0562476
250000 0.0558593
256250 0.0555608
262500 0.0552710
268750 0.0549895
275000 0.0547159
287500 0.0541907
300000 0.0536925
306250 0.0535721
312500 0.0534543
318750 0.0533391
325000 0.0532264
337500 0.0530081
350000 0.0527985
362500 0.0525971
375000 0.0524032
387500 0.0522164
400000 0.0520361
412500 0.0518620
425000 0.0516936
450000 0.0513728
475000 0.0510711
500000 0.0507866
512500 0.0508776
525000 0.0509665
550000 0.0511387
575000 0.0513037
600000 0.0514622
625000 0.0516147
650000 0.0517616
675000 0.0519034
700000 0.0520404
723419 0.0524240
746838 0.0527981
770257 0.0531632
793676 0.0535198
796838 0.0527697
800000 0.0520330
812500 0.0515321
825000 0.0510436
837500 0.0505669
850000 0.0501017
862500 0.0496474
875000 0.0492037
900000 0.0483465
928309 0.0482281
929216 0.0479260
931428 0.0477161
933640 0.0475076
938064 0.0470949
946912 0.0462858
955760 0.0454979
964608 0.0447305
982304 0.0432544
1.00000E+06 0.0418520
1.01785E+06 0.0414008
1.03571E+06 0.0409623
1.05356E+06 0.0405357
1.07141E+06 0.0401207
1.07141E+06 0.0401206
1.07482E+06 0.0399753
1.07822E+06 0.0398311
1.08503E+06 0.0395456
1.09183E+06 0.0392639
1.09864E+06 0.0389859
1.09864E+06 0.0389858
1.10174E+06 0.0388481
1.10484E+06 0.0387113
1.11103E+06 0.0384403
1.12343E+06 0.0379083
1.13582E+06 0.0373893
1.14821E+06 0.0368831
1.16060E+06 0.0363889
1.17300E+06 0.0359065
1.19778E+06 0.0349755
1.20104E+06 0.0348773
1.20431E+06 0.0347796
1.21084E+06 0.0345860
1.22389E+06 0.0342048
1.23695E+06 0.0338319
1.25000E+06 0.0334669
1.26030E+06 0.0332939
1.26030E+06 0.0332939
1.26362E+06 0.0332449
1.26693E+06 0.0331962
1.27356E+06 0.0330994
1.28682E+06 0.0329080
1.30008E+06 0.0327197
1.31335E+06 0.0325344
1.33987E+06 0.0321723
1.36639E+06 0.0318213
1.36640E+06 0.0318213
1.37057E+06 0.0317877
1.37475E+06 0.0317543
1.38309E+06 0.0316878
1.39979E+06 0.0315566
1.41649E+06 0.0314274
1.43320E+06 0.0313002
1.44990E+06 0.0311750
1.46660E+06 0.0310517
1.48330E+06 0.0309304
1.50000E+06 0.0308108
1.51686E+06 0.0308591
1.53371E+06 0.0309069
1.55057E+06 0.0309543
1.56742E+06 0.0310012
1.56759E+06 0.0310017
1.57193E+06 0.0309777
1.57626E+06 0.0309538
1.58493E+06 0.0309063
1.58493E+06 0.0309063
1.59069E+06 0.0308762
1.59645E+06 0.0308462
1.60798E+06 0.0307867
1.61950E+06 0.0307277
1.63102E+06 0.0306692
1.63102E+06 0.0306692
1.63448E+06 0.0306465
1.63793E+06 0.0306238
1.64484E+06 0.0305787
1.65035E+06 0.0305586
1.65586E+06 0.0305386
1.66688E+06 0.0304988
1.67789E+06 0.0304594
1.68891E+06 0.0304202
1.71095E+06 0.0303428
1.73298E+06 0.0302666
1.73724E+06 0.0302453
1.74149E+06 0.0302240
1.75000E+06 0.0301817
1.76988E+06 0.0301932
1.78975E+06 0.0302045
1.78976E+06 0.0302045
1.79354E+06 0.0301926
1.79732E+06 0.0301807
1.80488E+06 0.0301571
1.80488E+06 0.0301571
1.80852E+06 0.0301552
1.81215E+06 0.0301533
1.81942E+06 0.0301495
1.83395E+06 0.0301419
1.84849E+06 0.0301344
1.86302E+06 0.0301270
1.87756E+06 0.0301196
1.89209E+06 0.0301123
1.90663E+06 0.0301050
1.92116E+06 0.0300978
1.92116E+06 0.0300978
1.92736E+06 0.0300981
1.93357E+06 0.0300985
1.94597E+06 0.0300991
1.95061E+06 0.0301021
1.95525E+06 0.0301050
1.96082E+06 0.0301125
1.96639E+06 0.0301201
1.97754E+06 0.0301351
1.99982E+06 0.0301648
1.99982E+06 0.0301648
2.00000E+06 0.0301650
2.00702E+06 0.0300643
2.01405E+06 0.0299642
2.02809E+06 0.0297662
2.04214E+06 0.0295708
2.05619E+06 0.0293781
2.07023E+06 0.0291878
2.08428E+06 0.0290001
2.09833E+06 0.0288149
2.11237E+06 0.0286320
2.12642E+06 0.0284516
2.14047E+06 0.0282734
2.15451E+06 0.0280975
2.16856E+06 0.0279238
2.18261E+06 0.0277523
2.19665E+06 0.0275830
2.21070E+06 0.0274157
2.22475E+06 0.0272506
2.23879E+06 0.0270874
2.25284E+06 0.0269262
2.26689E+06 0.0267670
2.28093E+06 0.0266097
2.29498E+06 0.0264543
2.30903E+06 0.0263008
2.32307E+06 0.0261490
2.33712E+06 0.0259990
2.35117E+06 0.0258508
2.36521E+06 0.0257043
2.37926E+06 0.0255595
2.39330E+06 0.0254164
2.40735E+06 0.0252749
2.42140E+06 0.0251350
2.43544E+06 0.0249966
2.44949E+06 0.0248598
2.46669E+06 0.0246944
2.48390E+06 0.0245312
2.50110E+06 0.0243702
2.51830E+06 0.0242113
2.53551E+06 0.0240545
2.55271E+06 0.0238998
2.56992E+06 0.0237472
2.58712E+06 0.0235965
2.60432E+06 0.0234477
2.62153E+06 0.0233009
2.63873E+06 0.0231559
2.65593E+06 0.0230128
2.67314E+06 0.0228715
2.69034E+06 0.0227319
2.70754E+06 0.0225941
2.72475E+06 0.0224580
2.74195E+06 0.0223235
2.75915E+06 0.0221907
2.77636E+06 0.0220595
2.79356E+06 0.0219299
2.81076E+06 0.0218018
2.82797E+06 0.0216752
2.84517E+06 0.0215501
2.86237E+06 0.0214266
2.87958E+06 0.0213044
2.89678E+06 0.0211837
2.91398E+06 0.0210643
2.93119E+06 0.0209464
2.94839E+06 0.0208297
2.96559E+06 0.0207144
2.98280E+06 0.0206004
3.00000E+06 0.0204877
3.00781E+06 0.0203757
3.01563E+06 0.0202646
3.02344E+06 0.0201544
3.03125E+06 0.0200451
3.03906E+06 0.0199367
3.04688E+06 0.0198291
3.05469E+06 0.0197224
3.06250E+06 0.0196165
3.07031E+06 0.0195115
3.07813E+06 0.0194073
3.08594E+06 0.0193039
3.09375E+06 0.0192013
3.10156E+06 0.0190995
3.10938E+06 0.0189985
3.11719E+06 0.0188983
3.12500E+06 0.0187989
3.13281E+06 0.0187002
3.14063E+06 0.0186023
3.14844E+06 0.0185052
3.15625E+06 0.0184088
3.16406E+06 0.0183131
3.17188E+06 0.0182182
3.17969E+06 0.0181240
3.18750E+06 0.0180305
3.19531E+06 0.0179377
3.20313E+06 0.0178457
3.21094E+06 0.0177543
3.21875E+06 0.0176636
3.22656E+06 0.0175736
3.23438E+06 0.0174843
3.24219E+06 0.0173956
3.25000E+06 0.0173076
3.25781E+06 0.0172202
3.26563E+06 0.0171335
3.27344E+06 0.0170475
3.28125E+06 0.0169621
3.28906E+06 0.0168773
3.29688E+06 0.0167931
3.30469E+06 0.0167095
3.31250E+06 0.0166266
3.32031E+06 0.0165443
3.32813E+06 0.0164625
3.33594E+06 0.0163814
3.34375E+06 0.0163008
3.35156E+06 0.0162209
3.35938E+06 0.0161415
3.36719E+06 0.0160626
3.37500E+06 0.0159844
3.38281E+06 0.0159067
3.39063E+06 0.0158296
3.39844E+06 0.0157530
3.40625E+06 0.0156769
3.41406E+06 0.0156014
3.42188E+06 0.0155264
3.42969E+06 0.0154520
3.43750E+06 0.0153781
3.44531E+06 0.0153047
3.45313E+06 0.0152318
3.46094E+06 0.0151594
3.46875E+06 0.0150876
3.47656E+06 0.0150162
3.48438E+06 0.0149454
3.49219E+06 0.0148750
3.50000E+06 0.0148051
3.50781E+06 0.0147357
3.51563E+06 0.0146668
3.52344E+06 0.0145983
3.53125E+06 0.0145304
3.53906E+06 0.0144628
3.54688E+06 0.0143958
3.55469E+06 0.0143292
3.56250E+06 0.0142631
3.57031E+06 0.0141974
3.57813E+06 0.0141321
3.58594E+06 0.0140673
3.59375E+06 0.0140029
3.60156E+06 0.0139390
3.60938E+06 0.0138755
3.61719E+06 0.0138124
3.62500E+06 0.0137498
3.63281E+06 0.0136875
3.64063E+06 0.0136257
3.64844E+06 0.0135643
3.65625E+06 0.0135033
3.66406E+06 0.0134427
3.67188E+06 0.0133825
3.67969E+06 0.0133227
3.68750E+06 0.0132633
3.69531E+06 0.0132042
3.70313E+06 0.0131456
3.71094E+06 0.0130873
3.71875E+06 0.0130295
3.72656E+06 0.0129720
3.73438E+06 0.0129149
3.74219E+06 0.0128581
3.75000E+06 0.0128017
3.75781E+06 0.0127457
3.76563E+06 0.0126900
3.77344E+06 0.0126347
3.78125E+06 0.0125798
3.78906E+06 0.0125252
3.79688E+06 0.0124709
3.80469E+06 0.0124170
3.81250E+06 0.0123635
3.82031E+06 0.0123102
3.82813E+06 0.0122574
3.83594E+06 0.0122048
3.84375E+06 0.0121526
3.85156E+06 0.0121007
3.85938E+06 0.0120491
3.86719E+06 0.0119979
3.87500E+06 0.0119470
3.88281E+06 0.0118964
3.89063E+06 0.0118461
3.89844E+06 0.0117961
3.90625E+06 0.0117465
3.91406E+06 0.0116971
3.92188E+06 0.0116481
3.92969E+06 0.0115993
3.93750E+06 0.0115509
3.94531E+06 0.0115027
3.95313E+06 0.0114549
3.96094E+06 0.0114073
3.96875E+06 0.0113600
3.97656E+06 0.0113130
3.98438E+06 0.0112663
3.99219E+06 0.0112199
4.00000E+06 0.0111738
4.00676E+06 0.0111101
4.01353E+06 0.0110469
4.02029E+06 0.0109841
4.02706E+06 0.0109218
4.03382E+06 0.0108600
4.04058E+06 0.0107986
4.04735E+06 0.0107376
4.05411E+06 0.0106771
4.06087E+06 0.0106171
4.06764E+06 0.0105574
4.07440E+06 0.0104982
4.08117E+06 0.0104395
4.08793E+06 0.0103811
4.09469E+06 0.0103232
4.10146E+06 0.0102657
4.10822E+06 0.0102087
4.11498E+06 0.0101520
4.12175E+06 0.0100957
4.12851E+06 0.0100399
4.13528E+06 0.00998439
4.14204E+06 0.00992932
4.14880E+06 0.00987465
4.15557E+06 0.00982037
4.16233E+06 0.00976647
4.16909E+06 0.00971296
4.17586E+06 0.00965982
4.18262E+06 0.00960706
4.18939E+06 0.00955468
4.19615E+06 0.00950266
4.20291E+06 0.00945101
4.20968E+06 0.00939972
4.21644E+06 0.00934880
4.22320E+06 0.00929823
4.22997E+06 0.00924801
4.23673E+06 0.00919814
4.24350E+06 0.00914863
4.25026E+06 0.00909945
4.25702E+06 0.00905062
4.26379E+06 0.00900212
4.27055E+06 0.00895397
4.27731E+06 0.00890615
4.28408E+06 0.00885865
4.29084E+06 0.00881149
4.29761E+06 0.00876465
4.30437E+06 0.00871813
4.31113E+06 0.00867193
4.31790E+06 0.00862605
4.32466E+06 0.00858048
4.33142E+06 0.00853522
4.33819E+06 0.00849027
4.34495E+06 0.00844563
4.35172E+06 0.00840130
4.35848E+06 0.00835726
4.36524E+06 0.00831352
4.37201E+06 0.00827007
4.37877E+06 0.00822693
4.38553E+06 0.00818407
4.39230E+06 0.00814150
4.39906E+06 0.00809922
4.40583E+06 0.00805722
4.41259E+06 0.00801550
4.41935E+06 0.00797406
4.42612E+06 0.00793290
4.43288E+06 0.00789202
4.44174E+06 0.00783886
4.45060E+06 0.00778618
4.45946E+06 0.00773395
4.46833E+06 0.00768217
4.47719E+06 0.00763083
4.48605E+06 0.00757995
4.49491E+06 0.00752950
4.50377E+06 0.00747949
4.51263E+06 0.00742990
4.52149E+06 0.00738074
4.53035E+06 0.00733201
4.53922E+06 0.00728368
4.54808E+06 0.00723577
4.55694E+06 0.00718827
4.56580E+06 0.00714117
4.57466E+06 0.00709447
4.58352E+06 0.00704816
4.59238E+06 0.00700224
4.60124E+06 0.00695672
4.61011E+06 0.00691157
4.61897E+06 0.00686680
4.62783E+06 0.00682241
4.63669E+06 0.00677839
4.64555E+06 0.00673474
4.65441E+06 0.00669144
4.66327E+06 0.00664851
4.67213E+06 0.00660594
4.68100E+06 0.00656372
4.68986E+06 0.00652184
4.69872E+06 0.00648032
4.70758E+06 0.00643913
4.71644E+06 0.00639829
4.72530E+06 0.00635777
4.73416E+06 0.00631759
4.74302E+06 0.00627774
4.75189E+06 0.00623822
4.76075E+06 0.00619901
4.76961E+06 0.00616012
4.77847E+06 0.00612155
4.78733E+06 0.00608330
4.79619E+06 0.00604534
4.80505E+06 0.00600770
4.81391E+06 0.00597036
4.82278E+06 0.00593332
4.83164E+06 0.00589658
4.84050E+06 0.00586013
4.84936E+06 0.00582397
4.85822E+06 0.00578810
4.86708E+06 0.00575252
4.87594E+06 0.00571722
4.88480E+06 0.00568220
4.89367E+06 0.00564746
4.90253E+06 0.00561299
4.91139E+06 0.00557879
4.92025E+06 0.00554487
4.92911E+06 0.00551121
4.93797E+06 0.00547781
4.94683E+06 0.00544468
4.95569E+06 0.00541180
4.96456E+06 0.00537918
4.97342E+06 0.00534682
4.98228E+06 0.00531471
4.99114E+06 0.00528285
5.00000E+06 0.00525123
5.00746E+06 0.00521750
5.01491E+06 0.00518405
5.02237E+06 0.00515085
5.02983E+06 0.00511792
5.03728E+06 0.00508524
5.04474E+06 0.00505282
5.05220E+06 0.00502066
5.05965E+06 0.00498875
5.06711E+06 0.00495709
5.07457E+06 0.00492567
5.08203E+06 0.00489450
5.08948E+06 0.00486357
5.09694E+06 0.00483288
5.10440E+06 0.00480243
5.11185E+06 0.00477222
5.11931E+06 0.00474224
5.12677E+06 0.00471249
5.13422E+06 0.00468297
5.14168E+06 0.00465368
5.14914E+06 0.00462461
5.15659E+06 0.00459577
5.16405E+06 0.00456715
5.17151E+06 0.00453874
5.17896E+06 0.00451056
5.18642E+06 0.00448259
5.19388E+06 0.00445483
5.20133E+06 0.00442728
5.20879E+06 0.00439995
5.21625E+06 0.00437282
5.22370E+06 0.00434590
5.23116E+06 0.00431918
5.23862E+06 0.00429266
5.24607E+06 0.00426634
5.25353E+06 0.00424022
5.26099E+06 0.00421430
5.26844E+06 0.00418857
5.27590E+06 0.00416304
5.28336E+06 0.00413769
5.29081E+06 0.00411254
5.29827E+06 0.00408758
5.30573E+06 0.00406280
5.31318E+06 0.00403820
5.32064E+06 0.00401379
5.32810E+06 0.00398956
5.33555E+06 0.00396551
5.34301E+06 0.00394164
5.35047E+06 0.00391794
5.35792E+06 0.00389442
5.36538E+06 0.00387108
5.37284E+06 0.00384790
5.38029E+06 0.00382490
5.38775E+06 0.00380207
5.39521E+06 0.00377940
5.40266E+06 0.00375690
5.41012E+06 0.00373456
5.41758E+06 0.00371239
5.42503E+06 0.00369038
5.43249E+06 0.00366853
5.43995E+06 0.00364683
5.44740E+06 0.00362530
5.45486E+06 0.00360392
5.46232E+06 0.00358270
5.46977E+06 0.00356163
5.47723E+06 0.00354072
5.48540E+06 0.00352023
5.49357E+06 0.00349989
5.50174E+06 0.00347969
5.50990E+06 0.00345964
5.51807E+06 0.00343974
5.52624E+06 0.00341998
5.53441E+06 0.00340036
5.54258E+06 0.00338089
5.55075E+06 0.00336155
5.55891E+06 0.00334235
5.56708E+06 0.00332329
5.57525E+06 0.00330437
5.58342E+06 0.00328558
5.59159E+06 0.00326693
5.59976E+06 0.00324841
5.60792E+06 0.00323002
5.61609E+06 0.00321176
5.62426E+06 0.00319363
5.63243E+06 0.00317563
5.64060E+06 0.00315776
5.64877E+06 0.00314001
5.65693E+06 0.00312239
5.66510E+06 0.00310489
5.67327E+06 0.00308751
5.68144E+06 0.00307026
5.68961E+06 0.00305313
5.69777E+06 0.00303612
5.70594E+06 0.00301923
5.71411E+06 0.00300245
5.72228E+06 0.00298579
5.73045E+06 0.00296925
5.73862E+06 0.00295282
5.74678E+06 0.00293651
5.75495E+06 0.00292031
5.76312E+06 0.00290422
5.77129E+06 0.00288825
5.77946E+06 0.00287238
5.78763E+06 0.00285662
5.79579E+06 0.00284097
5.80396E+06 0.00282543
5.81213E+06 0.00281000
5.82030E+06 0.00279467
5.82847E+06 0.00277945
5.83664E+06 0.00276433
5.84480E+06 0.00274931
5.85297E+06 0.00273440
5.86114E+06 0.00271959
5.86931E+06 0.00270488
5.87748E+06 0.00269026
5.88565E+06 0.00267575
5.89381E+06 0.00266134
5.90198E+06 0.00264702
5.91015E+06 0.00263280
5.91832E+06 0.00261868
5.92649E+06 0.00260465
5.93465E+06 0.00259071
5.94282E+06 0.00257687
5.95099E+06 0.00256312
5.95916E+06 0.00254947
5.96733E+06 0.00253590
5.97550E+06 0.00252243
5.98366E+06 0.00250904
5.99183E+06 0.00249575
6.00000E+06 0.00248254
6.00737E+06 0.00246956
6.01473E+06 0.00245666
6.02210E+06 0.00244385
6.02947E+06 0.00243111
6.03684E+06 0.00241846
6.04420E+06 0.00240589
6.05157E+06 0.00239340
6.05894E+06 0.00238099
6.06630E+06 0.00236866
6.07367E+06 0.00235641
6.08104E+06 0.00234424
6.08840E+06 0.00233214
6.09577E+06 0.00232012
6.10314E+06 0.00230818
6.11050E+06 0.00229631
6.11787E+06 0.00228452
6.12524E+06 0.00227281
6.13260E+06 0.00226116
6.13997E+06 0.00224960
6.14734E+06 0.00223810
6.15471E+06 0.00222667
6.16207E+06 0.00221532
6.16944E+06 0.00220404
6.17681E+06 0.00219283
6.18417E+06 0.00218169
6.19154E+06 0.00217062
6.19891E+06 0.00215962
6.20627E+06 0.00214869
6.21364E+06 0.00213783
6.22101E+06 0.00212703
6.22837E+06 0.00211630
6.23574E+06 0.00210564
6.24340E+06 0.00209627
6.25105E+06 0.00208696
6.25871E+06 0.00207770
6.26637E+06 0.00206850
6.27402E+06 0.00205934
6.28168E+06 0.00205024
6.28933E+06 0.00204119
6.29699E+06 0.00203218
6.30465E+06 0.00202323
6.31230E+06 0.00201433
6.31996E+06 0.00200548
6.32762E+06 0.00199668
6.33527E+06 0.00198793
6.34293E+06 0.00197923
6.35058E+06 0.00197057
6.35824E+06 0.00196197
6.36590E+06 0.00195341
6.37355E+06 0.00194490
6.38121E+06 0.00193643
6.38887E+06 0.00192802
6.39652E+06 0.00191964
6.40418E+06 0.00191132
6.41183E+06 0.00190304
6.41949E+06 0.00189481
6.42715E+06 0.00188662
6.43480E+06 0.00187848
6.44246E+06 0.00187038
6.45012E+06 0.00186233
6.45777E+06 0.00185432
6.46543E+06 0.00184636
6.47308E+06 0.00183844
6.48074E+06 0.00183056
6.48868E+06 0.00182404
6.49662E+06 0.00181756
6.50456E+06 0.00181111
6.51250E+06 0.00180468
6.52043E+06 0.00179829
6.52837E+06 0.00179193
6.53631E+06 0.00178560
6.54425E+06 0.00177930
6.55620E+06 0.00176987
6.56814E+06 0.00176051
6.58009E+06 0.00175122
6.59203E+06 0.00174199
6.60398E+06 0.00173283
6.61592E+06 0.00172374
6.62787E+06 0.00171470
6.63981E+06 0.00170573
6.65176E+06 0.00169683
6.66370E+06 0.00168798
6.67565E+06 0.00167920
6.68759E+06 0.00167048
6.69954E+06 0.00166182
6.71148E+06 0.00165322
6.72343E+06 0.00164468
6.73537E+06 0.00163620
6.75191E+06 0.00162759
6.76845E+06 0.00161905
6.78499E+06 0.00161057
6.80153E+06 0.00160215
6.81807E+06 0.00159380
6.83461E+06 0.00158552
6.85115E+06 0.00157730
6.86769E+06 0.00156913
6.88423E+06 0.00156104
6.90076E+06 0.00155300
6.91730E+06 0.00154502
6.93384E+06 0.00153710
6.95038E+06 0.00152924
6.96692E+06 0.00152145
6.98346E+06 0.00151370
7.00000E+06 0.00150602
7.01485E+06 0.00149444
7.02970E+06 0.00148297
7.04455E+06 0.00147162
7.05941E+06 0.00146037
7.07426E+06 0.00144924
7.08911E+06 0.00143821
7.10396E+06 0.00142729
7.11881E+06 0.00141648
7.13366E+06 0.00140577
7.14851E+06 0.00139516
7.16336E+06 0.00138465
7.17822E+06 0.00137425
7.19307E+06 0.00136394
7.20792E+06 0.00135373
7.22277E+06 0.00134362
7.23762E+06 0.00133361
7.25298E+06 0.00132707
7.26833E+06 0.00132057
7.28369E+06 0.00131412
7.29904E+06 0.00130771
7.31440E+06 0.00130135
7.32975E+06 0.00129503
7.34511E+06 0.00128875
7.36047E+06 0.00128252
7.37582E+06 0.00127633
7.39118E+06 0.00127019
7.40653E+06 0.00126409
7.42189E+06 0.00125802
7.43724E+06 0.00125200
7.45260E+06 0.00124603
7.46796E+06 0.00124009
7.48331E+06 0.00123419
7.50598E+06 0.00122983
7.52866E+06 0.00122549
7.55133E+06 0.00122119
7.57400E+06 0.00121691
7.59667E+06 0.00121266
7.61935E+06 0.00120844
7.64202E+06 0.00120424
7.66469E+06 0.00120007
7.68285E+06 0.00119675
7.70102E+06 0.00119345
7.71918E+06 0.00119016
7.73734E+06 0.00118689
7.75376E+06 0.00118626
7.77017E+06 0.00118564
7.78659E+06 0.00118501
7.80301E+06 0.00118439
7.81942E+06 0.00118377
7.83584E+06 0.00118315
7.85225E+06 0.00118253
7.86867E+06 0.00118191
7.88509E+06 0.00118130
7.90150E+06 0.00118069
7.91792E+06 0.00118007
7.93434E+06 0.00117946
7.95075E+06 0.00117886
7.96717E+06 0.00117825
7.98358E+06 0.00117764
8.00000E+06 0.00117704
8.01625E+06 0.00117492
8.03250E+06 0.00117281
8.04875E+06 0.00117071
8.06500E+06 0.00116861
8.07813E+06 0.00116692
8.09127E+06 0.00116524
8.10440E+06 0.00116356
8.11754E+06 0.00116189
8.13067E+06 0.00116023
8.14380E+06 0.00115856
8.15694E+06 0.00115691
8.17007E+06 0.00115525
8.18320E+06 0.00115361
8.19634E+06 0.00115197
8.20947E+06 0.00115033
8.22261E+06 0.00114870
8.23574E+06 0.00114707
8.24887E+06 0.00114545
8.26201E+06 0.00114383
8.27514E+06 0.00114222
8.28827E+06 0.00114061
8.30141E+06 0.00113901
8.31454E+06 0.00113741
8.32768E+06 0.00113582
8.34081E+06 0.00113423
8.35394E+06 0.00113264
8.36708E+06 0.00113106
8.38021E+06 0.00112949
8.39334E+06 0.00112792
8.40648E+06 0.00112636
8.41961E+06 0.00112479
8.43275E+06 0.00112324
8.44588E+06 0.00112169
8.45901E+06 0.00112014
8.47215E+06 0.00111860
8.48528E+06 0.00111706
8.50137E+06 0.00111681
8.51745E+06 0.00111657
8.53354E+06 0.00111632
8.54962E+06 0.00111608
8.56571E+06 0.00111583
8.58179E+06 0.00111559
8.59788E+06 0.00111535
8.61396E+06 0.00111510
8.63005E+06 0.00111486
8.64613E+06 0.00111462
8.66222E+06 0.00111438
8.67830E+06 0.00111414
8.69439E+06 0.00111390
8.71047E+06 0.00111366
8.72656E+06 0.00111342
8.74264E+06 0.00111318
8.75873E+06 0.00111294
8.77481E+06 0.00111270
8.79090E+06 0.00111246
8.80698E+06 0.00111223
8.82307E+06 0.00111199
8.83915E+06 0.00111175
8.85524E+06 0.00111152
8.87132E+06 0.00111128
8.88741E+06 0.00111105
8.90349E+06 0.00111082
8.91958E+06 0.00111058
8.93566E+06 0.00111035
8.95175E+06 0.00111012
8.96783E+06 0.00110988
8.98392E+06 0.00110965
9.00000E+06 0.00110942
9.01454E+06 0.00110859
9.02908E+06 0.00110776
9.04362E+06 0.00110693
9.05816E+06 0.00110610
9.07270E+06 0.00110527
9.08724E+06 0.00110445
9.10178E+06 0.00110363
9.11632E+06 0.00110281
9.13086E+06 0.00110199
9.14540E+06 0.00110117
9.15994E+06 0.00110036
9.17448E+06 0.00109954
9.18902E+06 0.00109873
9.20356E+06 0.00109793
9.21810E+06 0.00109712
9.23264E+06 0.00109631
9.24718E+06 0.00109551
9.26172E+06 0.00109471
9.27626E+06 0.00109391
9.29080E+06 0.00109311
9.30534E+06 0.00109232
9.31988E+06 0.00109152
9.33442E+06 0.00109073
9.34896E+06 0.00108994
9.36350E+06 0.00108915
9.37804E+06 0.00108836
9.39258E+06 0.00108758
9.40712E+06 0.00108680
9.42166E+06 0.00108602
9.43620E+06 0.00108524
9.45074E+06 0.00108446
9.46528E+06 0.00108368
9.48057E+06 0.00108287
9.49586E+06 0.00108206
9.51116E+06 0.00108124
9.52645E+06 0.00108044
9.54174E+06 0.00107963
9.55703E+06 0.00107882
9.57232E+06 0.00107802
9.58761E+06 0.00107722
9.60291E+06 0.00107642
9.61820E+06 0.00107562
9.63349E+06 0.00107483
9.64878E+06 0.00107404
9.66407E+06 0.00107324
9.67936E+06 0.00107245
9.69465E+06 0.00107167
9.70995E+06 0.00107088
9.72524E+06 0.00107009
9.74053E+06 0.00106931
9.75582E+06 0.00106853
9.77111E+06 0.00106775
9.78640E+06 0.00106697
9.80170E+06 0.00106620
9.81699E+06 0.00106543
9.83228E+06 0.00106465
9.84757E+06 0.00106388
9.86286E+06 0.00106312
9.87815E+06 0.00106235
9.89344E+06 0.00106158
9.90874E+06 0.00106082
9.92403E+06 0.00106006
9.93932E+06 0.00105930
9.95461E+06 0.00105854
9.96456E+06 0.00105805
9.97451E+06 0.00105756
9.98446E+06 0.00105707
9.99441E+06 0.00105658
1.00000E+07 0.00105630
1.00092E+07 0.00105589
1.00184E+07 0.00105547
1.00275E+07 0.00105506
1.00367E+07 0.00105464
1.00459E+07 0.00105423
1.00550E+07 0.00105382
1.00642E+07 0.00105341
1.00734E+07 0.00105300
1.00826E+07 0.00105259
1.00917E+07 0.00105218
1.01009E+07 0.00105177
1.01101E+07 0.00105136
1.01192E+07 0.00105095
1.01284E+07 0.00105054
1.01376E+07 0.00105013
1.01468E+07 0.00104973
1.01559E+07 0.00104932
1.01651E+07 0.00104891
1.01743E+07 0.00104851
1.01834E+07 0.00104810
1.01926E+07 0.00104770
1.02018E+07 0.00104730
1.02110E+07 0.00104689
1.02201E+07 0.00104649
1.02293E+07 0.00104609
1.02385E+07 0.00104569
1.02477E+07 0.00104529
1.02568E+07 0.00104489
1.02660E+07 0.00104449
1.02752E+07 0.00104409
1.02843E+07 0.00104369
1.02935E+07 0.00104329
1.03030E+07 0.00104288
1.03124E+07 0.00104247
1.03218E+07 0.00104206
1.03313E+07 0.00104165
1.03407E+07 0.00104124
1.03502E+07 0.00104084
1.03596E+07 0.00104043
1.03691E+07 0.00104002
1.03785E+07 0.00103962
1.03879E+07 0.00103921
1.03974E+07 0.00103881
1.04068E+07 0.00103840
1.04163E+07 0.00103800
1.04257E+07 0.00103760
1.04352E+07 0.00103720
1.04446E+07 0.00103679
1.04541E+07 0.00103639
1.04635E+07 0.00103599
1.04729E+07 0.00103559
1.04824E+07 0.00103519
1.04918E+07 0.00103479
1.05013E+07 0.00103439
1.05107E+07 0.00103399
1.05202E+07 0.00103360
1.05296E+07 0.00103320
1.05390E+07 0.00103280
1.05485E+07 0.00103241
1.05579E+07 0.00103201
1.05674E+07 0.00103162
1.05768E+07 0.00103122
1.05863E+07 0.00103083
1.05957E+07 0.00103043
1.06020E+07 0.00103017
1.06083E+07 0.00102991
1.06147E+07 0.00102964
1.06210E+07 0.00102938
1.06273E+07 0.00102912
1.06336E+07 0.00102886
1.06399E+07 0.00102860
1.06462E+07 0.00102833
1.06526E+07 0.00102807
1.06589E+07 0.00102781
1.06652E+07 0.00102755
1.06715E+07 0.00102729
1.06778E+07 0.00102703
1.06842E+07 0.00102677
1.06905E+07 0.00102651
1.06968E+07 0.00102625
1.07031E+07 0.00102599
1.07094E+07 0.00102573
1.07157E+07 0.00102547
1.07221E+07 0.00102521
1.07284E+07 0.00102495
1.07347E+07 0.00102469
1.07410E+07 0.00102444
1.07473E+07 0.00102418
1.07536E+07 0.00102392
1.07600E+07 0.00102366
1.07663E+07 0.00102341
1.07726E+07 0.00102315
1.07789E+07 0.00102289
1.07852E+07 0.00102263
1.07915E+07 0.00102238
1.07979E+07 0.00102212
1.08042E+07 0.00102187
1.08105E+07 0.00102161
1.08168E+07 0.00102135
1.08231E+07 0.00102110
1.08294E+07 0.00102084
1.08358E+07 0.00102059
1.08421E+07 0.00102033
1.08484E+07 0.00102008
1.08547E+07 0.00101982
1.08610E+07 0.00101957
1.08674E+07 0.00101932
1.08737E+07 0.00101906
1.08800E+07 0.00101881
1.08863E+07 0.00101856
1.08926E+07 0.00101830
1.08989E+07 0.00101805
1.09053E+07 0.00101780
1.09116E+07 0.00101754
1.09179E+07 0.00101729
1.09242E+07 0.00101704
1.09305E+07 0.00101679
1.09368E+07 0.00101654
1.09432E+07 0.00101628
1.09495E+07 0.00101603
1.09558E+07 0.00101578
1.09621E+07 0.00101553
1.09684E+07 0.00101528
1.09747E+07 0.00101503
1.09811E+07 0.00101478
1.09874E+07 0.00101453
1.09937E+07 0.00101428
1.10000E+07 0.00101403
1.10077E+07 0.00101385
1.10153E+07 0.00101366
1.10229E+07 0.00101348
1.10306E+07 0.00101329
1.10382E+07 0.00101311
1.10459E+07 0.00101293
1.10535E+07 0.00101274
1.10611E+07 0.00101256
1.10688E+07 0.00101238
1.10764E+07 0.00101220
1.10841E+07 0.00101201
1.10917E+07 0.00101183
1.10994E+07 0.00101165
1.11070E+07 0.00101147
1.11146E+07 0.00101129
1.11223E+07 0.00101110
1.11299E+07 0.00101092
1.11376E+07 0.00101074
1.11452E+07 0.00101056
1.11529E+07 0.00101038
1.11605E+07 0.00101020
1.11681E+07 0.00101002
1.11758E+07 0.00100984
1.11834E+07 0.00100965
1.11911E+07 0.00100947
1.11987E+07 0.00100929
1.12064E+07 0.00100911
1.12140E+07 0.00100893
1.12216E+07 0.00100875
1.12293E+07 0.00100858
1.12369E+07 0.00100840
1.12446E+07 0.00100822
1.12522E+07 0.00100804
1.12598E+07 0.00100786
1.12675E+07 0.00100768
1.12751E+07 0.00100750
1.12828E+07 0.00100732
1.12904E+07 0.00100714
1.12981E+07 0.00100697
1.13057E+07 0.00100679
1.13133E+07 0.00100661
1.13210E+07 0.00100643
1.13286E+07 0.00100625
1.13363E+07 0.00100608
1.13439E+07 0.00100590
1.13516E+07 0.00100572
1.13592E+07 0.00100555
1.13668E+07 0.00100537
1.13745E+07 0.00100519
1.13821E+07 0.00100502
1.13898E+07 0.00100484
1.13974E+07 0.00100466
1.14051E+07 0.00100449
1.14127E+07 0.00100431
1.14203E+07 0.00100414
1.14280E+07 0.00100396
1.14356E+07 0.00100378
1.14433E+07 0.00100361
1.14509E+07 0.00100343
1.14585E+07 0.00100326
1.14662E+07 0.00100308
1.14738E+07 0.00100291
1.14815E+07 0.00100273
1.14891E+07 0.00100256
1.14971E+07 0.00100238
1.15051E+07 0.00100220
1.15131E+07 0.00100201
1.15210E+07 0.00100183
1.15290E+07 0.00100165
1.15370E+07 0.00100147
1.15450E+07 0.00100129
1.15530E+07 0.00100111
1.15610E+07 0.00100093
1.15689E+07 0.00100075
1.15769E+07 0.00100057
1.15849E+07 0.00100039
1.15929E+07 0.00100021
1.16009E+07 0.00100003
1.16089E+07 0.000999845
1.16168E+07 0.000999665
1.16248E+07 0.000999486
1.16328E+07 0.000999306
1.16408E+07 0.000999127
1.16488E+07 0.000998948
1.16568E+07 0.000998769
1.16647E+07 0.000998590
1.16727E+07 0.000998412
1.16807E+07 0.000998233
1.16887E+07 0.000998055
1.16967E+07 0.000997877
1.17046E+07 0.000997699
1.17126E+07 0.000997521
1.17206E+07 0.000997343
1.17286E+07 0.000997166
1.17366E+07 0.000996988
1.17446E+07 0.000996811
1.17525E+07 0.000996634
1.17605E+07 0.000996457
1.17685E+07 0.000996280
1.17765E+07 0.000996103
1.17845E+07 0.000995927
1.17925E+07 0.000995750
1.18004E+07 0.000995574
1.18084E+07 0.000995398
1.18164E+07 0.000995222
1.18244E+07 0.000995047
1.18324E+07 0.000994871
1.18404E+07 0.000994696
1.18483E+07 0.000994520
1.18563E+07 0.000994345
1.18643E+07 0.000994170
1.18723E+07 0.000993995
1.18803E+07 0.000993821
1.18883E+07 0.000993646
1.18962E+07 0.000993472
1.19042E+07 0.000993298
1.19122E+07 0.000993123
1.19202E+07 0.000992949
1.19282E+07 0.000992776
1.19361E+07 0.000992602
1.19441E+07 0.000992428
1.19521E+07 0.000992255
1.19601E+07 0.000992082
1.19681E+07 0.000991909
1.19761E+07 0.000991736
1.19840E+07 0.000991563
1.19920E+07 0.000991390
1.20000E+07 0.000991218
1.20077E+07 0.000991192
1.20153E+07 0.000991165
1.20230E+07 0.000991139
1.20306E+07 0.000991112
1.20383E+07 0.000991086
1.20459E+07 0.000991059
1.20536E+07 0.000991033
1.20613E+07 0.000991007
1.20689E+07 0.000990980
1.20766E+07 0.000990954
1.20842E+07 0.000990927
1.20919E+07 0.000990901
1.20995E+07 0.000990875
1.21072E+07 0.000990849
1.21149E+07 0.000990822
1.21225E+07 0.000990796
1.21302E+07 0.000990770
1.21378E+07 0.000990744
1.21455E+07 0.000990718
1.21531E+07 0.000990691
1.21608E+07 0.000990665
1.21684E+07 0.000990639
1.21761E+07 0.000990613
1.21838E+07 0.000990587
1.21914E+07 0.000990561
1.21991E+07 0.000990535
1.22067E+07 0.000990509
1.22144E+07 0.000990483
1.22220E+07 0.000990457
1.22297E+07 0.000990431
1.22374E+07 0.000990405
1.22450E+07 0.000990379
1.22527E+07 0.000990353
1.22603E+07 0.000990327
1.22680E+07 0.000990301
1.22756E+07 0.000990275
1.22833E+07 0.000990249
1.22909E+07 0.000990223
1.22986E+07 0.000990197
1.23063E+07 0.000990172
1.23139E+07 0.000990146
1.23216E+07 0.000990120
1.23292E+07 0.000990094
1.23369E+07 0.000990068
1.23445E+07 0.000990043
1.23522E+07 0.000990017
1.23599E+07 0.000989991
1.23675E+07 0.000989966
1.23752E+07 0.000989940
1.23828E+07 0.000989914
1.23905E+07 0.000989889
1.23981E+07 0.000989863
1.24058E+07 0.000989837
1.24134E+07 0.000989812
1.24211E+07 0.000989786
1.24288E+07 0.000989761
1.24364E+07 0.000989735
1.24441E+07 0.000989709
1.24517E+07 0.000989684
1.24594E+07 0.000989658
1.24670E+07 0.000989633
1.24747E+07 0.000989608
1.24824E+07 0.000989582
1.24900E+07 0.000989557
1.24980E+07 0.000989530
1.25059E+07 0.000989504
1.25139E+07 0.000989477
1.25219E+07 0.000989451
1.25299E+07 0.000989425
1.25378E+07 0.000989398
1.25458E+07 0.000989372
1.25538E+07 0.000989345
1.25617E+07 0.000989319
1.25697E+07 0.000989293
1.25777E+07 0.000989267
1.25856E+07 0.000989240
1.25936E+07 0.000989214
1.26016E+07 0.000989188
1.26095E+07 0.000989162
1.26175E+07 0.000989135
1.26255E+07 0.000989109
1.26334E+07 0.000989083
1.26414E+07 0.000989057
1.26494E+07 0.000989031
1.26574E+07 0.000989005
1.26653E+07 0.000988979
1.26733E+07 0.000988953
1.26813E+07 0.000988927
1.26892E+07 0.000988900
1.26972E+07 0.000988874
1.27052E+07 0.000988848
1.27131E+07 0.000988822
1.27211E+07 0.000988796
1.27291E+07 0.000988771
1.27370E+07 0.000988745
1.27450E+07 0.000988719
1.27530E+07 0.000988693
1.27609E+07 0.000988667
1.27689E+07 0.000988641
1.27769E+07 0.000988615
1.27849E+07 0.000988589
1.27928E+07 0.000988564
1.28008E+07 0.000988538
1.28088E+07 0.000988512
1.28167E+07 0.000988486
1.28247E+07 0.000988460
1.28327E+07 0.000988435
1.28406E+07 0.000988409
1.28486E+07 0.000988383
1.28566E+07 0.000988358
1.28645E+07 0.000988332
1.28725E+07 0.000988306
1.28805E+07 0.000988281
1.28884E+07 0.000988255
1.28964E+07 0.000988229
1.29044E+07 0.000988204
1.29124E+07 0.000988178
1.29203E+07 0.000988153
1.29283E+07 0.000988127
1.29363E+07 0.000988102
1.29442E+07 0.000988076
1.29522E+07 0.000988051
1.29602E+07 0.000988025
1.29681E+07 0.000988000
1.29761E+07 0.000987974
1.29841E+07 0.000987949
1.29920E+07 0.000987923
1.30000E+07 0.000987898
1.30078E+07 0.000988001
1.30156E+07 0.000988104
1.30234E+07 0.000988207
1.30313E+07 0.000988310
1.30391E+07 0.000988413
1.30469E+07 0.000988516
1.30547E+07 0.000988618
1.30625E+07 0.000988721
1.30703E+07 0.000988824
1.30781E+07 0.000988926
1.30859E+07 0.000989029
1.30938E+07 0.000989131
1.31016E+07 0.000989234
1.31094E+07 0.000989336
1.31172E+07 0.000989438
1.31250E+07 0.000989541
1.31328E+07 0.000989643
1.31406E+07 0.000989745
1.31484E+07 0.000989847
1.31563E+07 0.000989949
1.31641E+07 0.000990051
1.31719E+07 0.000990153
1.31797E+07 0.000990255
1.31875E+07 0.000990357
1.31953E+07 0.000990459
1.32031E+07 0.000990561
1.32109E+07 0.000990662
1.32188E+07 0.000990764
1.32266E+07 0.000990866
1.32344E+07 0.000990967
1.32422E+07 0.000991069
1.32500E+07 0.000991170
1.32578E+07 0.000991272
1.32656E+07 0.000991373
1.32734E+07 0.000991475
1.32813E+07 0.000991576
1.32891E+07 0.000991677
1.32969E+07 0.000991778
1.33047E+07 0.000991879
1.33125E+07 0.000991980
1.33203E+07 0.000992082
1.33281E+07 0.000992183
1.33359E+07 0.000992283
1.33438E+07 0.000992384
1.33516E+07 0.000992485
1.33594E+07 0.000992586
1.33672E+07 0.000992687
1.33750E+07 0.000992787
1.33828E+07 0.000992888
1.33906E+07 0.000992989
1.33984E+07 0.000993089
1.34063E+07 0.000993190
1.34141E+07 0.000993290
1.34219E+07 0.000993391
1.34297E+07 0.000993491
1.34375E+07 0.000993591
1.34453E+07 0.000993692
1.34531E+07 0.000993792
1.34609E+07 0.000993892
1.34688E+07 0.000993992
1.34766E+07 0.000994092
1.34844E+07 0.000994192
1.34922E+07 0.000994292
1.35000E+07 0.000994392
1.35078E+07 0.000994492
1.35156E+07 0.000994592
1.35234E+07 0.000994691
1.35313E+07 0.000994791
1.35391E+07 0.000994891
1.35469E+07 0.000994991
1.35547E+07 0.000995090
1.35625E+07 0.000995190
1.35703E+07 0.000995289
1.35781E+07 0.000995389
1.35859E+07 0.000995488
1.35938E+07 0.000995587
1.36016E+07 0.000995687
1.36094E+07 0.000995786
1.36172E+07 0.000995885
1.36250E+07 0.000995984
1.36328E+07 0.000996084
1.36406E+07 0.000996183
1.36484E+07 0.000996282
1.36563E+07 0.000996381
1.36641E+07 0.000996480
1.36719E+07 0.000996578
1.36797E+07 0.000996677
1.36875E+07 0.000996776
1.36953E+07 0.000996875
1.37031E+07 0.000996973
1.37109E+07 0.000997072
1.37188E+07 0.000997171
1.37266E+07 0.000997269
1.37344E+07 0.000997368
1.37422E+07 0.000997466
1.37500E+07 0.000997565
1.37578E+07 0.000997663
1.37656E+07 0.000997761
1.37734E+07 0.000997860
1.37813E+07 0.000997958
1.37891E+07 0.000998056
1.37969E+07 0.000998154
1.38047E+07 0.000998252
1.38125E+07 0.000998350
1.38203E+07 0.000998448
1.38281E+07 0.000998546
1.38359E+07 0.000998644
1.38438E+07 0.000998742
1.38516E+07 0.000998840
1.38594E+07 0.000998938
1.38672E+07 0.000999036
1.38750E+07 0.000999133
1.38828E+07 0.000999231
1.38906E+07 0.000999328
1.38984E+07 0.000999426
1.39063E+07 0.000999523
1.39141E+07 0.000999621
1.39219E+07 0.000999718
1.39297E+07 0.000999816
1.39375E+07 0.000999913
1.39453E+07 0.00100001
1.39531E+07 0.00100011
1.39609E+07 0.00100021
1.39688E+07 0.00100030
1.39766E+07 0.00100040
1.39844E+07 0.00100050
1.39922E+07 0.00100059
1.40000E+07 0.00100069
1.40095E+07 0.00100094
1.40189E+07 0.00100119
1.40284E+07 0.00100144
1.40378E+07 0.00100169
1.40473E+07 0.00100194
1.40567E+07 0.00100219
1.40662E+07 0.00100244
1.40757E+07 0.00100269
1.40851E+07 0.00100294
1.40946E+07 0.00100318
1.41040E+07 0.00100343
1.41135E+07 0.00100368
1.41229E+07 0.00100393
1.41324E+07 0.00100418
1.41419E+07 0.00100443
1.41513E+07 0.00100467
1.41608E+07 0.00100492
1.41702E+07 0.00100517
1.41797E+07 0.00100542
1.41891E+07 0.00100567
1.41986E+07 0.00100591
1.42080E+07 0.00100616
1.42175E+07 0.00100641
1.42270E+07 0.00100666
1.42364E+07 0.00100690
1.42459E+07 0.00100715
1.42553E+07 0.00100740
1.42648E+07 0.00100765
1.42742E+07 0.00100789
1.42837E+07 0.00100814
1.42932E+07 0.00100839
1.43026E+07 0.00100863
1.43149E+07 0.00100895
1.43273E+07 0.00100928
1.43396E+07 0.00100960
1.43520E+07 0.00100992
1.43643E+07 0.00101024
1.43766E+07 0.00101056
1.43890E+07 0.00101088
1.44013E+07 0.00101120
1.44136E+07 0.00101152
1.44260E+07 0.00101184
1.44383E+07 0.00101216
1.44507E+07 0.00101248
1.44630E+07 0.00101280
1.44753E+07 0.00101312
1.44877E+07 0.00101344
1.45000E+07 0.00101376
1.45078E+07 0.00101396
1.45156E+07 0.00101416
1.45234E+07 0.00101436
1.45313E+07 0.00101456
1.45391E+07 0.00101476
1.45469E+07 0.00101497
1.45547E+07 0.00101517
1.45625E+07 0.00101537
1.45703E+07 0.00101557
1.45781E+07 0.00101577
1.45859E+07 0.00101597
1.45938E+07 0.00101617
1.46016E+07 0.00101638
1.46094E+07 0.00101658
1.46172E+07 0.00101678
1.46250E+07 0.00101698
1.46328E+07 0.00101718
1.46406E+07 0.00101738
1.46484E+07 0.00101758
1.46563E+07 0.00101778
1.46641E+07 0.00101798
1.46719E+07 0.00101818
1.46797E+07 0.00101838
1.46875E+07 0.00101858
1.46953E+07 0.00101878
1.47031E+07 0.00101898
1.47109E+07 0.00101918
1.47188E+07 0.00101938
1.47266E+07 0.00101958
1.47344E+07 0.00101978
1.47422E+07 0.00101998
1.47500E+07 0.00102018
1.47578E+07 0.00102038
1.47656E+07 0.00102058
1.47734E+07 0.00102078
1.47813E+07 0.00102098
1.47891E+07 0.00102118
1.47969E+07 0.00102138
1.48047E+07 0.00102158
1.48125E+07 0.00102178
1.48203E+07 0.00102198
1.48281E+07 0.00102218
1.48359E+07 0.00102238
1.48438E+07 0.00102257
1.48516E+07 0.00102277
1.48594E+07 0.00102297
1.48672E+07 0.00102317
1.48750E+07 0.00102337
1.48828E+07 0.00102357
1.48906E+07 0.00102377
1.48984E+07 0.00102397
1.49063E+07 0.00102416
1.49141E+07 0.00102436
1.49219E+07 0.00102456
1.49297E+07 0.00102476
1.49375E+07 0.00102496
1.49453E+07 0.00102516
1.49531E+07 0.00102535
1.49609E+07 0.00102555
1.49688E+07 0.00102575
1.49766E+07 0.00102595
1.49844E+07 0.00102615
1.49922E+07 0.00102634
1.50000E+07 0.00102654
1.50149E+07 0.00102710
1.50298E+07 0.00102766
1.50447E+07 0.00102821
1.50596E+07 0.00102877
1.50746E+07 0.00102933
1.50895E+07 0.00102988
1.51044E+07 0.00103044
1.51193E+07 0.00103099
1.51342E+07 0.00103155
1.51491E+07 0.00103210
1.51640E+07 0.00103266
1.51789E+07 0.00103321
1.51938E+07 0.00103377
1.52087E+07 0.00103432
1.52237E+07 0.00103488
1.52386E+07 0.00103543
1.52535E+07 0.00103598
1.52684E+07 0.00103654
1.52833E+07 0.00103709
1.52982E+07 0.00103764
1.53131E+07 0.00103819
1.53280E+07 0.00103875
1.53429E+07 0.00103930
1.53578E+07 0.00103985
1.53727E+07 0.00104040
1.53877E+07 0.00104095
1.54026E+07 0.00104150
1.54175E+07 0.00104206
1.54324E+07 0.00104261
1.54473E+07 0.00104316
1.54622E+07 0.00104371
1.54771E+07 0.00104426
1.54920E+07 0.00104481
1.55069E+07 0.00104536
1.55218E+07 0.00104590
1.55367E+07 0.00104645
1.55517E+07 0.00104700
1.55666E+07 0.00104755
1.55815E+07 0.00104810
1.55964E+07 0.00104865
1.56113E+07 0.00104919
1.56262E+07 0.00104974
1.56411E+07 0.00105029
1.56560E+07 0.00105084
1.56709E+07 0.00105138
1.56858E+07 0.00105193
1.57008E+07 0.00105248
1.57157E+07 0.00105302
1.57306E+07 0.00105357
1.57455E+07 0.00105411
1.57604E+07 0.00105466
1.57753E+07 0.00105520
1.57902E+07 0.00105575
1.58051E+07 0.00105629
1.58200E+07 0.00105684
1.58349E+07 0.00105738
1.58498E+07 0.00105793
1.58648E+07 0.00105847
1.58797E+07 0.00105901
1.58946E+07 0.00105956
1.59095E+07 0.00106010
1.59244E+07 0.00106064
1.59393E+07 0.00106118
1.59542E+07 0.00106173
1.59771E+07 0.00106256
1.60000E+07 0.00106339
1.60142E+07 0.00106405
1.60283E+07 0.00106471
1.60425E+07 0.00106536
1.60567E+07 0.00106602
1.60708E+07 0.00106668
1.60850E+07 0.00106734
1.60992E+07 0.00106799
1.61133E+07 0.00106865
1.61275E+07 0.00106931
1.61417E+07 0.00106996
1.61558E+07 0.00107062
1.61700E+07 0.00107127
1.61842E+07 0.00107193
1.61983E+07 0.00107259
1.62125E+07 0.00107324
1.62266E+07 0.00107390
1.62408E+07 0.00107455
1.62550E+07 0.00107521
1.62691E+07 0.00107586
1.62833E+07 0.00107652
1.62975E+07 0.00107717
1.63116E+07 0.00107782
1.63258E+07 0.00107848
1.63399E+07 0.00107913
1.63541E+07 0.00107979
1.63683E+07 0.00108044
1.63824E+07 0.00108109
1.63966E+07 0.00108175
1.64108E+07 0.00108240
1.64249E+07 0.00108305
1.64391E+07 0.00108371
1.64533E+07 0.00108436
1.64674E+07 0.00108501
1.64816E+07 0.00108566
1.64958E+07 0.00108631
1.65099E+07 0.00108697
1.65241E+07 0.00108762
1.65382E+07 0.00108827
1.65524E+07 0.00108892
1.65666E+07 0.00108957
1.65807E+07 0.00109022
1.65949E+07 0.00109087
1.66091E+07 0.00109153
1.66232E+07 0.00109218
1.66374E+07 0.00109283
1.66516E+07 0.00109348
1.66657E+07 0.00109413
1.66799E+07 0.00109478
1.66941E+07 0.00109543
1.67082E+07 0.00109608
1.67224E+07 0.00109673
1.67365E+07 0.00109737
1.67507E+07 0.00109802
1.67649E+07 0.00109867
1.67790E+07 0.00109932
1.67932E+07 0.00109997
1.68074E+07 0.00110062
1.68215E+07 0.00110127
1.68357E+07 0.00110191
1.68499E+07 0.00110256
1.68640E+07 0.00110321
1.68782E+07 0.00110386
1.68923E+07 0.00110450
1.69065E+07 0.00110515
1.69182E+07 0.00110569
1.69299E+07 0.00110622
1.69416E+07 0.00110675
1.69533E+07 0.00110729
1.69649E+07 0.00110782
1.69766E+07 0.00110835
1.69883E+07 0.00110889
1.70000E+07 0.00110942
1.70156E+07 0.00111027
1.70313E+07 0.00111112
1.70469E+07 0.00111198
1.70625E+07 0.00111283
1.70781E+07 0.00111368
1.70938E+07 0.00111453
1.71094E+07 0.00111538
1.71250E+07 0.00111623
1.71406E+07 0.00111708
1.71563E+07 0.00111793
1.71719E+07 0.00111878
1.71875E+07 0.00111963
1.72031E+07 0.00112048
1.72188E+07 0.00112133
1.72344E+07 0.00112218
1.72500E+07 0.00112303
1.72656E+07 0.00112388
1.72813E+07 0.00112473
1.72969E+07 0.00112558
1.73125E+07 0.00112643
1.73281E+07 0.00112728
1.73438E+07 0.00112813
1.73594E+07 0.00112898
1.73750E+07 0.00112983
1.73906E+07 0.00113068
1.74063E+07 0.00113153
1.74219E+07 0.00113237
1.74375E+07 0.00113322
1.74531E+07 0.00113407
1.74688E+07 0.00113492
1.74844E+07 0.00113577
1.75000E+07 0.00113661
1.75156E+07 0.00113746
1.75313E+07 0.00113831
1.75469E+07 0.00113916
1.75625E+07 0.00114000
1.75781E+07 0.00114085
1.75938E+07 0.00114170
1.76094E+07 0.00114255
1.76250E+07 0.00114339
1.76406E+07 0.00114424
1.76563E+07 0.00114509
1.76719E+07 0.00114593
1.76875E+07 0.00114678
1.77031E+07 0.00114763
1.77188E+07 0.00114847
1.77344E+07 0.00114932
1.77500E+07 0.00115016
1.77656E+07 0.00115101
1.77813E+07 0.00115185
1.77969E+07 0.00115270
1.78125E+07 0.00115355
1.78281E+07 0.00115439
1.78438E+07 0.00115524
1.78594E+07 0.00115608
1.78750E+07 0.00115693
1.78906E+07 0.00115777
1.79063E+07 0.00115862
1.79219E+07 0.00115946
1.79375E+07 0.00116030
1.79531E+07 0.00116115
1.79688E+07 0.00116199
1.79844E+07 0.00116284
1.80000E+07 0.00116368
1.80156E+07 0.00116465
1.80313E+07 0.00116561
1.80469E+07 0.00116658
1.80625E+07 0.00116754
1.80781E+07 0.00116850
1.80938E+07 0.00116947
1.81094E+07 0.00117043
1.81250E+07 0.00117140
1.81406E+07 0.00117236
1.81563E+07 0.00117333
1.81719E+07 0.00117429
1.81875E+07 0.00117526
1.82031E+07 0.00117622
1.82188E+07 0.00117719
1.82344E+07 0.00117815
1.82500E+07 0.00117911
1.82656E+07 0.00118008
1.82813E+07 0.00118104
1.82969E+07 0.00118201
1.83125E+07 0.00118297
1.83281E+07 0.00118394
1.83438E+07 0.00118490
1.83594E+07 0.00118586
1.83750E+07 0.00118683
1.83906E+07 0.00118779
1.84063E+07 0.00118876
1.84219E+07 0.00118972
1.84375E+07 0.00119068
1.84531E+07 0.00119165
1.84688E+07 0.00119261
1.84844E+07 0.00119358
1.85000E+07 0.00119454
1.85156E+07 0.00119550
1.85313E+07 0.00119647
1.85469E+07 0.00119743
1.85625E+07 0.00119839
1.85781E+07 0.00119936
1.85938E+07 0.00120032
1.86094E+07 0.00120128
1.86250E+07 0.00120225
1.86406E+07 0.00120321
1.86563E+07 0.00120417
1.86719E+07 0.00120514
1.86875E+07 0.00120610
1.87031E+07 0.00120707
1.87188E+07 0.00120803
1.87344E+07 0.00120899
1.87500E+07 0.00120995
1.87656E+07 0.00121092
1.87813E+07 0.00121188
1.87969E+07 0.00121284
1.88125E+07 0.00121381
1.88281E+07 0.00121477
1.88438E+07 0.00121573
1.88594E+07 0.00121670
1.88750E+07 0.00121766
1.88906E+07 0.00121862
1.89063E+07 0.00121958
1.89219E+07 0.00122055
1.89375E+07 0.00122151
1.89531E+07 0.00122247
1.89688E+07 0.00122344
1.89844E+07 0.00122440
1.90000E+07 0.00122536
1.90156E+07 0.00122643
1.90313E+07 0.00122750
1.90469E+07 0.00122857
1.90625E+07 0.00122963
1.90781E+07 0.00123070
1.90938E+07 0.00123177
1.91094E+07 0.00123284
1.91250E+07 0.00123391
1.91406E+07 0.00123498
1.91563E+07 0.00123605
1.91719E+07 0.00123712
1.91875E+07 0.00123819
1.92031E+07 0.00123926
1.92188E+07 0.00124032
1.92344E+07 0.00124139
1.92500E+07 0.00124246
1.92656E+07 0.00124353
1.92813E+07 0.00124460
1.92969E+07 0.00124567
1.93125E+07 0.00124674
1.93281E+07 0.00124781
1.93438E+07 0.00124888
1.93594E+07 0.00124995
1.93750E+07 0.00125102
1.93906E+07 0.00125209
1.94063E+07 0.00125316
1.94219E+07 0.00125423
1.94375E+07 0.00125530
1.94531E+07 0.00125637
1.94688E+07 0.00125744
1.94844E+07 0.00125851
1.95000E+07 0.00125958
1.95156E+07 0.00126065
1.95313E+07 0.00126172
1.95469E+07 0.00126279
1.95625E+07 0.00126386
1.95781E+07 0.00126493
1.95938E+07 0.00126600
1.96094E+07 0.00126707
1.96250E+07 0.00126814
1.96406E+07 0.00126921
1.96563E+07 0.00127028
1.96719E+07 0.00127135
1.96875E+07 0.00127242
1.97031E+07 0.00127350
1.97188E+07 0.00127457
1.97344E+07 0.00127564
1.97500E+07 0.00127671
1.97656E+07 0.00127778
1.97813E+07 0.00127885
1.97969E+07 0.00127992
1.98125E+07 0.00128099
1.98281E+07 0.00128206
1.98438E+07 0.00128314
1.98594E+07 0.00128421
1.98750E+07 0.00128528
1.98906E+07 0.00128635
1.99063E+07 0.00128742
1.99219E+07 0.00128849
1.99375E+07 0.00128956
1.99531E+07 0.00129064
1.99688E+07 0.00129171
1.99844E+07 0.00129278
2.00000E+07 0.00129385
