Sn-115(n,g) ENDFB-8.0
Energy(eV) XS(b)
1.00000E-05 2935.84
1.03125E-05 2891.01
1.06250E-05 2848.18
1.09375E-05 2807.19
1.12500E-05 2767.93
1.15625E-05 2730.27
1.18750E-05 2694.11
1.21875E-05 2659.34
1.25000E-05 2625.89
1.28125E-05 2593.67
1.31250E-05 2562.61
1.34375E-05 2532.63
1.37500E-05 2503.69
1.43750E-05 2448.65
1.50000E-05 2397.10
1.56250E-05 2348.66
1.62500E-05 2303.06
1.68750E-05 2260.00
1.75000E-05 2219.28
1.81250E-05 2180.68
1.87500E-05 2144.03
1.93750E-05 2109.16
2.00000E-05 2075.94
2.09375E-05 2028.93
2.18750E-05 1984.98
2.28125E-05 1943.77
2.37500E-05 1905.01
2.46875E-05 1868.49
2.56250E-05 1833.99
2.65625E-05 1801.34
2.75000E-05 1770.37
2.84375E-05 1740.94
2.93750E-05 1712.93
3.03125E-05 1686.24
3.12500E-05 1660.75
3.21875E-05 1636.39
3.31250E-05 1613.06
3.40625E-05 1590.71
3.50000E-05 1569.26
3.59375E-05 1548.66
3.68750E-05 1528.84
3.78125E-05 1509.77
3.87500E-05 1491.40
3.96875E-05 1473.67
4.06250E-05 1456.57
4.25000E-05 1424.08
4.43750E-05 1393.67
4.62500E-05 1365.12
4.81250E-05 1338.27
5.00000E-05 1312.93
5.15625E-05 1292.89
5.31250E-05 1273.73
5.46875E-05 1255.40
5.62500E-05 1237.84
5.78125E-05 1221.00
5.93750E-05 1204.83
6.09375E-05 1189.28
6.25000E-05 1174.32
6.40625E-05 1159.91
6.56250E-05 1146.02
6.71875E-05 1132.61
6.87500E-05 1119.67
7.18750E-05 1095.06
7.50000E-05 1072.00
7.81250E-05 1050.34
8.12500E-05 1029.94
8.43750E-05 1010.69
8.75000E-05 992.474
9.06250E-05 975.211
9.37500E-05 958.819
9.68750E-05 943.227
0.000100000 928.371
0.000103125 914.196
0.000106250 900.651
0.000109375 887.691
0.000112500 875.274
0.000115625 863.364
0.000118750 851.928
0.000121875 840.934
0.000125000 830.355
0.000128125 820.166
0.000131250 810.342
0.000134375 800.864
0.000137500 791.710
0.000143750 774.307
0.000150000 758.002
0.000156250 742.686
0.000162500 728.263
0.000168750 714.648
0.000175000 701.769
0.000181250 689.563
0.000187500 677.971
0.000193750 666.946
0.000200000 656.441
0.000209375 641.575
0.000218750 627.675
0.000228125 614.641
0.000237500 602.386
0.000246875 590.836
0.000256250 579.926
0.000265625 569.599
0.000275000 559.804
0.000284375 550.498
0.000293750 541.641
0.000303125 533.198
0.000312500 525.138
0.000321875 517.433
0.000331250 510.057
0.000340625 502.987
0.000350000 496.204
0.000359375 489.688
0.000368750 483.422
0.000378125 477.390
0.000387500 471.579
0.000396875 465.975
0.000406250 460.566
0.000425000 450.289
0.000443750 440.672
0.000462500 431.645
0.000481250 423.150
0.000500000 415.139
0.000515625 408.799
0.000531250 402.741
0.000546875 396.944
0.000562500 391.390
0.000578125 386.064
0.000593750 380.949
0.000609375 376.031
0.000625000 371.300
0.000640625 366.743
0.000656250 362.349
0.000671875 358.109
0.000687500 354.015
0.000718750 346.231
0.000750000 338.939
0.000781250 332.088
0.000812500 325.637
0.000843750 319.547
0.000875000 313.787
0.000906250 308.327
0.000937500 303.142
0.000968750 298.210
0.00100000 293.512
0.00103125 289.028
0.00106250 284.744
0.00109375 280.644
0.00112500 276.717
0.00115625 272.950
0.00118750 269.332
0.00121875 265.855
0.00125000 262.509
0.00128125 259.286
0.00131250 256.178
0.00134375 253.180
0.00137500 250.285
0.00143750 244.779
0.00150000 239.622
0.00156250 234.777
0.00162500 230.214
0.00168750 225.907
0.00175000 221.833
0.00181250 217.971
0.00187500 214.304
0.00193750 210.816
0.00200000 207.493
0.00209375 202.789
0.00218750 198.391
0.00228125 194.268
0.00237500 190.390
0.00246875 186.736
0.00256250 183.284
0.00265625 180.016
0.00275000 176.917
0.00284375 173.972
0.00293750 171.169
0.00303125 168.497
0.00312500 165.947
0.00321875 163.508
0.00331250 161.174
0.00340625 158.937
0.00350000 156.790
0.00359375 154.728
0.00368750 152.745
0.00378125 150.836
0.00387500 148.996
0.00396875 147.222
0.00406250 145.510
0.00425000 142.258
0.00443750 139.213
0.00462500 136.356
0.00481250 133.667
0.00500000 131.131
0.00515625 129.123
0.00531250 127.205
0.00546875 125.370
0.00562500 123.612
0.00578125 121.925
0.00593750 120.306
0.00609375 118.749
0.00625000 117.250
0.00640625 115.807
0.00656250 114.416
0.00671875 113.073
0.00687500 111.776
0.00718750 109.311
0.00750000 107.001
0.00781250 104.831
0.00812500 102.787
0.00843750 100.858
0.00875000 99.0326
0.00906250 97.3025
0.00937500 95.6594
0.00968750 94.0964
0.0100000 92.6071
0.0103125 91.1860
0.0106250 89.8280
0.0109375 88.5285
0.0112500 87.2835
0.0115625 86.0892
0.0118750 84.9423
0.0121875 83.8398
0.0125000 82.7788
0.0128125 81.7569
0.0131250 80.7715
0.0134375 79.8207
0.0137500 78.9024
0.0143750 77.1563
0.0150000 75.5201
0.0156250 73.9829
0.0162500 72.5349
0.0168750 71.1678
0.0175000 69.8743
0.0181250 68.6482
0.0187500 67.4837
0.0193750 66.3758
0.0200000 65.3200
0.0206625 64.2536
0.0213250 63.2370
0.0219875 62.2666
0.0226500 61.3390
0.0233125 60.4510
0.0239750 59.6000
0.0246375 58.7835
0.0253000 57.9991
0.0264578 56.6995
0.0276156 55.4823
0.0287734 54.3391
0.0299313 53.2626
0.0310891 52.2467
0.0322469 51.2858
0.0334047 50.3750
0.0345625 49.5101
0.0355274 48.8216
0.0364922 48.1604
0.0374570 47.5247
0.0384219 46.9129
0.0393867 46.3236
0.0403516 45.7553
0.0413164 45.2069
0.0422813 44.6773
0.0442109 43.6702
0.0461406 42.7265
0.0480703 41.8398
0.0500000 41.0046
0.0515625 40.3628
0.0531250 39.7492
0.0546875 39.1620
0.0562500 38.5992
0.0578125 38.0592
0.0593750 37.5405
0.0609375 37.0417
0.0625000 36.5617
0.0640625 36.0993
0.0656250 35.6533
0.0671875 35.2230
0.0687500 34.8072
0.0718750 34.0162
0.0750000 33.2745
0.0781250 32.5770
0.0812500 31.9195
0.0843750 31.2985
0.0875000 30.7106
0.0906250 30.1530
0.0937500 29.6231
0.0968750 29.1188
0.100000 28.6380
0.103125 28.1789
0.106250 27.7399
0.109375 27.3196
0.112500 26.9167
0.115625 26.5300
0.118750 26.1584
0.121875 25.8010
0.125000 25.4569
0.128125 25.1253
0.131250 24.8055
0.134375 24.4968
0.137500 24.1985
0.143750 23.6308
0.150000 23.0980
0.156250 22.5966
0.162500 22.1237
0.168750 21.6768
0.175000 21.2535
0.181250 20.8519
0.187500 20.4700
0.193750 20.1063
0.200000 19.7596
0.204688 19.5098
0.209375 19.2684
0.218750 18.8084
0.228125 18.3761
0.237500 17.9687
0.246875 17.5840
0.256250 17.2201
0.265625 16.8751
0.275000 16.5473
0.284375 16.2354
0.293750 15.9381
0.303125 15.6542
0.312500 15.3828
0.321875 15.1230
0.331250 14.8739
0.340625 14.6348
0.350000 14.4050
0.359375 14.1840
0.368750 13.9711
0.378125 13.7660
0.387500 13.5681
0.396875 13.3769
0.406250 13.1922
0.415625 13.0135
0.425000 12.8406
0.434375 12.6733
0.443750 12.5112
0.457813 12.2770
0.471875 12.0527
0.500000 11.6323
0.531250 11.2033
0.562500 10.8081
0.593750 10.4433
0.625000 10.1051
0.656250 9.79033
0.687500 9.49645
0.750000 8.96260
0.812500 8.48919
0.875000 8.06661
0.937500 7.68539
1.00000 7.33817
1.06250 7.02107
1.12500 6.72999
1.18750 6.46159
1.25000 6.21309
1.31250 5.98219
1.37500 5.76694
1.43750 5.56570
1.50000 5.37704
1.62500 5.03276
1.75000 4.72679
1.87500 4.45224
2.00000 4.20345
2.09375 4.03202
2.18750 3.87241
2.28125 3.72317
2.37500 3.58330
2.46875 3.45195
2.56250 3.32835
2.65625 3.21184
2.75000 3.10224
2.93750 2.90000
3.12500 2.71767
3.31250 2.55287
3.50000 2.40323
3.68750 2.26683
3.87500 2.14205
4.06250 2.02753
4.25000 1.92211
4.43750 1.82480
4.62500 1.73476
4.81250 1.65125
5.00000 1.57359
5.15625 1.51295
5.31250 1.45578
5.46875 1.40176
5.62500 1.35083
5.93750 1.25671
6.25000 1.17179
6.56250 1.09504
6.87500 1.02542
7.18750 0.962073
7.50000 0.904261
7.81250 0.851355
8.12500 0.802815
8.43750 0.758175
8.75000 0.717027
9.06250 0.679020
9.37500 0.643843
9.68750 0.611224
10.0000 0.580923
10.3125 0.552728
10.6250 0.526451
10.9375 0.501924
11.2500 0.478996
11.5625 0.457534
11.8750 0.437417
12.1875 0.418537
12.5000 0.400796
12.8125 0.384106
13.1250 0.368388
13.4375 0.353568
13.7500 0.339581
14.0625 0.326367
14.3750 0.313871
14.6875 0.302043
15.0000 0.290866
15.6250 0.270183
16.2500 0.251497
16.8750 0.234590
17.5000 0.219248
18.1250 0.205288
18.7500 0.192553
19.3750 0.180907
20.0000 0.170226
20.7031 0.159264
21.4063 0.149245
22.1094 0.140124
22.8125 0.131745
23.5156 0.124079
24.2188 0.117009
24.9219 0.110566
25.6250 0.104517
26.5625 0.0972010
27.5000 0.0905883
28.4375 0.0845939
29.3750 0.0791450
30.3125 0.0741793
31.2500 0.0696428
32.1875 0.0654890
33.1250 0.0616772
34.0625 0.0581718
35.0000 0.0549420
35.9375 0.0519603
36.8750 0.0492028
37.8125 0.0466482
38.7500 0.0442776
39.6875 0.0420744
40.6250 0.0400236
41.5625 0.0381118
42.5000 0.0363273
43.4375 0.0346592
44.3750 0.0330980
45.3125 0.0316351
46.2500 0.0302626
47.1875 0.0289733
48.1250 0.0277611
49.0625 0.0266200
50.0000 0.0255459
51.5625 0.0238884
53.1250 0.0223795
54.6875 0.0210036
56.2500 0.0197460
57.8125 0.0185940
59.3750 0.0175364
60.9375 0.0165635
62.5000 0.0156669
64.0625 0.0148389
65.6250 0.0140730
67.1875 0.0133634
68.7500 0.0127048
70.3125 0.0120927
71.8750 0.0115229
73.4375 0.0109917
75.0000 0.0104960
76.5625 0.0100326
78.1250 0.00959897
79.6875 0.00919271
81.2500 0.00881164
82.8125 0.00845381
84.3750 0.00811745
85.9375 0.00780095
87.5000 0.00750283
89.0625 0.00722178
90.6250 0.00695657
92.1875 0.00670608
93.7500 0.00646963
96.8750 0.00603388
100.000 0.00564242
103.125 0.00529005
106.250 0.00497205
109.375 0.00468437
112.500 0.00442357
115.625 0.00418666
118.750 0.00397107
121.875 0.00377458
125.000 0.00359525
128.125 0.00343139
131.250 0.00328153
134.375 0.00314437
137.500 0.00301879
140.625 0.00290378
143.750 0.00279848
146.875 0.00270211
150.000 0.00261400
153.125 0.00253357
156.250 0.00246029
159.375 0.00239371
162.500 0.00233345
165.625 0.00227916
168.750 0.00223058
175.000 0.00214964
179.688 0.00210297
184.375 0.00206674
189.063 0.00204271
193.750 0.00202933
200.000 0.00203104
203.622 0.00204304
207.245 0.00206363
210.867 0.00209339
214.489 0.00213367
218.111 0.00218695
221.734 0.00225423
225.356 0.00233748
228.978 0.00244021
231.876 0.00254002
234.773 0.00265782
238.758 0.00285655
240.750 0.00297525
242.742 0.00310986
244.735 0.00326198
246.727 0.00343574
248.719 0.00363443
250.711 0.00386210
252.160 0.00404994
253.609 0.00425931
255.058 0.00449351
256.507 0.00475655
257.956 0.00505226
259.948 0.00552492
260.944 0.00579564
261.940 0.00609296
262.936 0.00642046
263.933 0.00678233
264.929 0.00718353
265.925 0.00762996
267.374 0.00837495
268.098 0.00879729
268.822 0.00925831
270.090 0.0101734
270.724 0.0106909
271.358 0.0112547
271.992 0.0118707
272.626 0.0125453
273.260 0.0132863
273.894 0.0140992
274.437 0.0148636
274.980 0.0157015
275.524 0.0166199
276.067 0.0176287
276.565 0.0186436
277.063 0.0197560
277.561 0.0209792
278.059 0.0223279
278.557 0.0238206
279.055 0.0254779
279.553 0.0273258
280.051 0.0293940
280.482 0.0313862
280.912 0.0335980
281.342 0.0360644
281.772 0.0388247
282.202 0.0419288
282.632 0.0454314
283.062 0.0494023
283.277 0.0515942
283.492 0.0539411
283.742 0.0568748
283.991 0.0600614
284.240 0.0635317
284.489 0.0673202
284.738 0.0714690
284.987 0.0760215
285.236 0.0810342
285.485 0.0865715
285.734 0.0927122
285.983 0.0995420
286.232 0.107175
286.356 0.111329
286.481 0.115735
286.605 0.120416
286.730 0.125388
286.854 0.130680
286.979 0.136320
287.103 0.142339
287.228 0.148771
287.352 0.155655
287.477 0.163034
287.624 0.172464
287.771 0.182747
287.919 0.193994
288.066 0.206324
288.213 0.219900
288.360 0.234879
288.507 0.251484
288.654 0.269934
288.779 0.287212
288.903 0.306234
289.028 0.327244
289.152 0.350532
289.277 0.376447
289.339 0.390527
289.401 0.405402
289.464 0.421185
289.526 0.437899
289.588 0.455678
289.650 0.474551
289.752 0.508162
289.854 0.545557
289.905 0.565878
289.956 0.587340
290.007 0.610123
290.058 0.634244
290.109 0.659916
290.160 0.687169
290.211 0.716256
290.262 0.747226
290.313 0.780385
290.364 0.815810
290.414 0.853794
290.465 0.894602
290.528 0.948834
290.590 1.00829
290.652 1.07391
290.714 1.14641
290.777 1.22712
290.808 1.27085
290.839 1.31715
290.870 1.36638
290.901 1.41849
290.932 1.47393
290.963 1.53302
290.995 1.59636
291.026 1.66398
291.057 1.73660
291.088 1.81482
291.119 1.89965
291.150 1.99139
291.181 2.09132
291.212 2.20067
291.244 2.32131
291.275 2.45426
291.306 2.60203
291.337 2.76722
291.368 2.95361
291.384 3.05573
291.399 3.16381
291.415 3.27984
291.430 3.40297
291.446 3.53552
291.461 3.67658
291.480 3.85729
291.498 4.05390
291.517 4.26812
291.535 4.50187
291.553 4.75722
291.572 5.03650
291.590 5.34222
291.609 5.67714
291.627 6.04426
291.645 6.44685
291.664 6.88844
291.682 7.37284
291.701 7.90416
291.719 8.48678
291.737 9.12541
291.756 9.82502
291.771 10.4699
291.787 11.1657
291.803 11.9160
291.818 12.7191
291.834 13.5892
291.849 14.5187
291.865 15.5238
291.880 16.5955
291.896 17.7518
291.911 18.9818
291.927 20.3057
291.942 21.7106
291.958 23.2187
291.974 24.8146
291.989 26.5228
292.005 28.3252
292.018 29.9832
292.032 31.7123
292.045 33.5404
292.058 35.4422
292.072 37.4478
292.085 39.5290
292.099 41.7179
292.112 43.9832
292.126 46.3593
292.139 48.8113
292.153 51.3759
292.166 54.0148
292.180 56.7666
292.193 59.5895
292.206 62.5021
292.220 65.5025
292.245 71.4458
292.271 77.6776
292.296 84.1709
292.322 90.8660
292.347 97.7764
292.373 104.831
292.398 111.978
292.424 119.132
292.486 136.442
292.517 144.721
292.548 152.565
292.579 159.918
292.610 166.602
292.647 173.465
292.678 178.280
292.709 182.097
292.728 183.889
292.747 185.270
292.771 186.454
292.796 186.927
292.800 186.936
292.813 186.819
292.842 185.838
292.871 183.878
292.897 181.281
292.923 177.941
292.949 173.903
292.975 169.240
293.001 163.997
293.027 158.240
293.052 152.310
293.077 146.064
293.102 139.517
293.127 132.787
293.179 118.281
293.231 103.700
293.264 94.5805
293.297 85.7670
293.330 77.3225
293.363 69.3203
293.389 63.3592
293.415 57.7484
293.441 52.4777
293.467 47.5546
293.493 42.9644
293.506 40.8089
293.519 38.7395
293.532 36.7554
293.545 34.8553
293.558 33.0378
293.571 31.3015
293.585 29.6321
293.598 28.0533
293.611 26.5500
293.624 25.1203
293.637 23.7618
293.650 22.4724
293.663 21.2498
293.676 20.0916
293.689 18.9954
293.702 17.9588
293.715 16.9795
293.728 16.0551
293.741 15.1831
293.754 14.3612
293.767 13.5871
293.780 12.8585
293.791 12.2296
293.803 11.6401
293.815 11.0784
293.827 10.5524
293.839 10.0517
293.851 9.58306
293.862 9.14091
293.874 8.72381
293.886 8.32720
293.898 7.95647
293.910 7.60697
293.922 7.27752
293.933 6.96445
293.945 6.67192
293.957 6.39621
293.969 6.13634
293.981 5.88936
293.993 5.65853
294.004 5.44086
294.016 5.23557
294.028 5.04030
294.040 4.85762
294.052 4.68516
294.063 4.52228
294.087 4.22170
294.111 3.95402
294.134 3.71304
294.158 3.49736
294.184 3.28346
294.210 3.09270
294.236 2.92123
294.262 2.76648
294.288 2.62572
294.314 2.49816
294.340 2.38161
294.366 2.27470
294.392 2.17591
294.418 2.08499
294.444 2.00068
294.470 1.92227
294.496 1.84885
294.522 1.78045
294.548 1.71630
294.574 1.65600
294.610 1.57926
294.645 1.50829
294.681 1.44244
294.716 1.38117
294.752 1.32402
294.787 1.27059
294.823 1.22054
294.858 1.17368
294.894 1.12950
294.929 1.08789
294.965 1.04864
295.000 1.01167
295.071 0.943412
295.142 0.882150
295.194 0.840979
295.246 0.802781
295.298 0.767133
295.350 0.733932
295.402 0.702836
295.454 0.673775
295.507 0.646469
295.559 0.620873
295.611 0.596754
295.663 0.574083
295.715 0.552664
295.767 0.532481
295.871 0.495316
295.975 0.461969
296.079 0.431929
296.183 0.404767
296.287 0.380123
296.391 0.357692
296.495 0.337214
296.600 0.318468
296.704 0.301263
296.808 0.285447
296.902 0.272117
296.997 0.259723
297.092 0.248153
297.186 0.237357
297.281 0.227246
297.376 0.217782
297.470 0.208901
297.565 0.200555
297.659 0.192695
297.754 0.185299
297.849 0.178324
297.943 0.171739
298.038 0.165509
298.133 0.159620
298.322 0.148757
298.426 0.143250
298.530 0.138047
298.738 0.128463
298.946 0.119853
299.154 0.112093
299.363 0.105066
299.571 0.0986867
299.779 0.0928774
299.987 0.0875747
300.271 0.0810516
300.555 0.0752417
300.839 0.0700469
301.123 0.0653833
301.407 0.0611766
301.691 0.0573661
301.974 0.0539044
302.258 0.0507528
302.675 0.0466156
303.091 0.0429749
303.507 0.0397542
303.924 0.0368921
304.340 0.0343362
304.757 0.0320449
305.173 0.0299829
305.589 0.0281211
306.119 0.0260009
306.649 0.0241218
307.179 0.0224484
307.709 0.0209519
308.466 0.0190741
309.223 0.0174561
309.904 0.0161815
310.586 0.0150489
311.267 0.0140406
311.948 0.0131394
312.630 0.0123308
313.311 0.0116027
313.992 0.0109447
314.673 0.0103484
315.506 0.00969253
316.339 0.00910652
317.172 0.00858087
318.004 0.00810783
318.837 0.00768067
319.670 0.00729389
321.335 0.00662290
323.152 0.00601934
324.364 0.00567675
325.575 0.00537252
326.786 0.00510247
327.997 0.00486208
329.663 0.00457322
331.328 0.00432483
332.994 0.00411074
334.659 0.00392610
336.325 0.00376614
337.990 0.00362794
341.321 0.00340545
343.743 0.00328161
347.377 0.00314470
351.011 0.00305242
354.645 0.00300206
358.278 0.00298451
361.609 0.00299761
364.940 0.00303491
368.271 0.00309699
371.602 0.00318535
374.933 0.00329908
378.264 0.00344296
381.595 0.00361927
384.926 0.00383138
387.045 0.00398932
389.165 0.00416727
391.285 0.00436742
393.404 0.00458909
395.524 0.00484212
397.644 0.00512822
399.763 0.00545263
401.883 0.00582205
403.548 0.00614945
405.214 0.00651439
406.879 0.00692302
408.545 0.00738268
410.210 0.00790145
411.876 0.00849089
413.541 0.00916401
415.207 0.00993717
416.191 0.0104501
417.175 0.0110105
418.159 0.0116204
419.143 0.0122954
420.127 0.0130408
421.112 0.0138663
422.096 0.0147842
423.080 0.0158090
423.913 0.0167729
424.745 0.0178386
425.578 0.0190216
426.411 0.0203401
427.243 0.0218163
428.076 0.0234764
428.909 0.0253532
429.742 0.0274868
430.309 0.0291141
430.877 0.0309030
431.445 0.0328750
432.013 0.0350520
432.580 0.0374674
433.148 0.0401672
433.716 0.0431939
434.284 0.0465996
434.700 0.0493771
435.116 0.0524252
435.533 0.0557823
435.949 0.0594904
436.366 0.0636026
436.782 0.0681784
437.198 0.0732933
437.615 0.0790335
437.955 0.0842719
438.296 0.0900724
438.637 0.0965188
438.977 0.103708
439.318 0.111760
439.488 0.116151
439.659 0.120813
439.829 0.125775
439.999 0.131057
440.170 0.136692
440.340 0.142712
440.548 0.150649
440.756 0.159290
440.964 0.168720
441.173 0.179038
441.381 0.190361
441.589 0.202823
441.797 0.216585
442.005 0.231828
442.214 0.248791
442.318 0.257997
442.422 0.267736
442.526 0.278050
442.630 0.288987
442.734 0.300597
442.838 0.312938
442.942 0.326071
443.046 0.340068
443.150 0.355006
443.255 0.370971
443.359 0.388062
443.463 0.406389
443.567 0.426074
443.671 0.447238
443.784 0.472255
443.898 0.499462
444.012 0.529182
444.125 0.561683
444.239 0.597394
444.352 0.636690
444.466 0.680159
444.579 0.728337
444.683 0.777323
444.787 0.831598
444.892 0.891976
444.944 0.924784
444.996 0.959438
445.048 0.996226
445.100 1.03518
445.152 1.07665
445.204 1.12069
445.256 1.16771
445.308 1.21780
445.360 1.27136
445.412 1.32873
445.455 1.37886
445.497 1.43207
445.540 1.48864
445.582 1.54889
445.625 1.61318
445.668 1.68192
445.710 1.75560
445.753 1.83459
445.795 1.91990
445.838 2.01213
445.880 2.11222
445.923 2.22100
445.966 2.34031
446.008 2.47155
446.051 2.61671
446.093 2.77784
446.119 2.88613
446.145 3.00203
446.171 3.12686
446.197 3.26167
446.223 3.40822
446.249 3.56673
446.275 3.73928
446.301 3.92758
446.328 4.13442
446.354 4.36041
446.380 4.60879
446.406 4.88233
446.432 5.18537
446.458 5.51907
446.484 5.88840
446.510 6.29767
446.523 6.52048
446.536 6.75344
446.549 6.99886
446.562 7.25746
446.575 7.52997
446.588 7.81714
446.601 8.11979
446.614 8.43873
446.627 8.77750
446.640 9.13184
446.653 9.50519
446.666 9.89854
446.679 10.3129
446.692 10.7493
446.705 11.2088
446.718 11.6926
446.731 12.2057
446.744 12.7417
446.757 13.3054
446.770 13.8981
446.783 14.5212
446.796 15.1759
446.809 15.8635
446.822 16.5854
446.835 17.3429
446.848 18.1375
446.861 18.9705
446.874 19.8434
446.887 20.7576
446.900 21.7146
446.913 22.7157
446.926 23.7624
446.945 25.3771
446.964 27.0874
446.977 28.3359
446.990 29.6275
447.003 30.9729
447.016 32.3732
447.029 33.8298
447.042 35.3438
447.055 36.9164
447.068 38.5484
447.081 40.2543
447.094 42.0087
447.120 45.7050
447.146 49.6551
447.172 53.8625
447.189 56.6840
447.205 59.5928
447.222 62.6237
447.238 65.7393
447.255 68.9758
447.271 72.2926
447.304 79.2360
447.331 84.9704
447.357 90.8934
447.383 97.0317
447.409 103.316
447.461 116.289
447.513 129.595
447.617 156.055
447.664 167.444
447.711 178.024
447.763 188.432
447.789 193.055
447.815 197.239
447.842 200.961
447.868 204.162
447.894 206.912
447.921 209.064
447.955 210.891
447.989 211.714
448.000 211.765
448.011 211.703
448.048 210.725
448.084 208.582
448.115 205.915
448.146 202.501
448.176 198.357
448.207 193.561
448.237 188.155
448.268 182.222
448.298 175.767
448.329 168.919
448.359 161.731
448.390 154.275
448.451 138.843
448.512 123.177
448.589 103.658
448.628 94.3373
448.667 85.4154
448.697 78.7248
448.728 72.3459
448.758 66.2976
448.789 60.5931
448.819 55.2403
448.850 50.2422
448.880 45.5976
448.911 41.3011
448.926 39.2743
448.941 37.3442
448.957 35.4836
448.972 33.7154
448.987 32.0144
449.002 30.4010
449.018 28.8521
449.033 27.3856
449.048 25.9803
449.063 24.6523
449.079 23.3818
449.094 22.1832
449.109 21.0384
449.124 19.9602
449.140 18.9385
449.155 17.9710
449.169 17.1319
449.183 16.3346
449.197 15.5774
449.210 14.8636
449.224 14.1814
449.238 13.5344
449.252 12.9211
449.266 12.3440
449.280 11.7932
449.294 11.2717
449.308 10.7780
449.321 10.3140
449.335 9.87176
449.349 9.45629
449.363 9.06040
449.377 8.68862
449.391 8.33444
449.405 7.99954
449.418 7.68287
449.432 7.38554
449.446 7.10229
449.460 6.83629
449.474 6.58284
449.488 6.34476
449.515 5.90306
449.543 5.50858
449.571 5.15446
449.599 4.83606
449.629 4.52088
449.660 4.24019
449.690 3.98862
449.721 3.76243
449.751 3.55839
449.782 3.37369
449.812 3.20588
449.843 3.05288
449.873 2.91286
449.904 2.78427
449.934 2.66575
449.965 2.55617
449.995 2.45451
450.026 2.35992
450.056 2.27165
450.087 2.18906
450.128 2.08457
450.170 1.98842
450.211 1.89961
450.253 1.81729
450.295 1.74075
450.336 1.66940
450.378 1.60272
450.419 1.54042
450.461 1.48180
450.503 1.42668
450.544 1.37477
450.586 1.32581
450.669 1.23581
450.752 1.15517
450.813 1.10103
450.874 1.05083
450.935 1.00412
450.996 0.960570
451.057 0.919887
451.118 0.881819
451.179 0.846141
451.240 0.812652
451.301 0.781171
451.362 0.751538
451.423 0.723607
451.484 0.697249
451.545 0.672345
451.606 0.648787
451.728 0.605335
451.850 0.566214
451.972 0.530861
452.094 0.498800
452.216 0.469632
452.338 0.443015
452.460 0.418659
452.582 0.396312
452.704 0.375757
452.815 0.358454
452.926 0.342368
453.037 0.327372
453.148 0.313368
453.259 0.300271
453.370 0.288001
453.481 0.276492
453.591 0.265680
453.702 0.255502
453.813 0.245926
453.924 0.236898
454.035 0.228377
454.257 0.212711
454.479 0.198669
454.601 0.191553
454.723 0.184836
454.967 0.172473
455.211 0.161376
455.455 0.151379
455.699 0.142341
455.943 0.134146
456.187 0.126692
456.431 0.119896
456.619 0.115045
456.808 0.110517
456.997 0.106279
457.185 0.102312
457.562 0.0950937
457.939 0.0887066
458.316 0.0830298
458.693 0.0779684
459.071 0.0734424
459.448 0.0693841
459.936 0.0647293
460.424 0.0606565
460.912 0.0570802
461.400 0.0539310
461.888 0.0511515
462.376 0.0486956
462.864 0.0465235
463.352 0.0446020
464.106 0.0420626
464.860 0.0399794
465.614 0.0382893
466.369 0.0369270
467.123 0.0358624
467.877 0.0350693
468.631 0.0345265
469.385 0.0342190
470.095 0.0341362
470.938 0.0342934
471.781 0.0347294
472.624 0.0354530
473.467 0.0364811
474.310 0.0378400
475.153 0.0395644
475.996 0.0416938
476.417 0.0429354
476.839 0.0443099
477.327 0.0460809
477.815 0.0480621
478.303 0.0502781
478.791 0.0527572
479.279 0.0555332
479.767 0.0586460
480.255 0.0621432
480.743 0.0660817
481.231 0.0705310
481.719 0.0755725
482.207 0.0813085
482.451 0.0844748
482.695 0.0878637
482.939 0.0914956
483.183 0.0953932
483.427 0.0995819
483.671 0.104090
483.915 0.108948
484.159 0.114192
484.403 0.119862
484.647 0.126004
484.891 0.132681
485.135 0.139951
485.379 0.147889
485.623 0.156579
485.867 0.166114
486.111 0.176606
486.355 0.188186
486.599 0.201008
486.843 0.215263
487.087 0.231159
487.209 0.239804
487.331 0.248964
487.453 0.258680
487.575 0.268998
487.697 0.279969
487.819 0.291649
487.941 0.304100
488.063 0.317391
488.185 0.331601
488.307 0.346816
488.429 0.363132
488.551 0.380660
488.662 0.397765
488.773 0.416065
488.884 0.435694
488.995 0.456787
489.106 0.479496
489.217 0.503994
489.328 0.530474
489.439 0.559162
489.561 0.593607
489.683 0.631400
489.805 0.673033
489.927 0.719052
490.049 0.770109
490.171 0.826982
490.232 0.857886
490.293 0.890612
490.354 0.925310
490.415 0.962145
490.473 0.999517
490.531 1.03912
490.589 1.08129
490.648 1.12610
490.706 1.17395
490.764 1.22496
490.822 1.27952
490.881 1.33799
490.939 1.40088
490.997 1.46843
491.055 1.54128
491.113 1.62004
491.172 1.70556
491.230 1.79839
491.288 1.89964
491.346 2.01048
491.407 2.13846
491.468 2.28044
491.529 2.43882
491.560 2.52506
491.590 2.61656
491.621 2.71381
491.651 2.81736
491.682 2.92781
491.712 3.04586
491.743 3.17226
491.773 3.30790
491.804 3.45373
491.834 3.61085
491.865 3.78047
491.895 3.96398
491.926 4.16290
491.956 4.37894
491.987 4.61401
492.017 4.87023
492.048 5.14996
492.078 5.45580
492.109 5.79062
492.139 6.15757
492.170 6.56010
492.200 7.00197
492.231 7.48724
492.261 8.02032
492.292 8.60591
492.322 9.24903
492.343 9.72334
492.364 10.2287
492.385 10.7668
492.406 11.3396
492.426 11.9490
492.447 12.5969
492.468 13.2853
492.489 14.0163
492.510 14.7918
492.530 15.6138
492.551 16.4843
492.572 17.4052
492.593 18.3784
492.614 19.4058
492.634 20.4890
492.655 21.6242
492.686 23.4036
492.716 25.3140
492.747 27.3588
492.777 29.5402
492.808 31.8593
492.838 34.3162
492.869 36.9092
492.899 39.6351
492.928 42.3648
492.957 45.1962
492.986 48.1308
493.016 51.1597
493.074 57.4559
493.132 63.9792
493.254 77.7847
493.315 84.3855
493.376 90.5127
493.406 93.3336
493.437 95.9591
493.467 98.3651
493.498 100.529
493.532 102.614
493.565 104.350
493.599 105.725
493.633 106.714
493.666 107.314
493.700 107.509
493.711 107.484
493.748 107.090
493.784 106.229
493.821 104.907
493.858 103.151
493.890 101.234
493.923 99.0166
493.955 96.5097
493.988 93.7556
494.021 90.7375
494.053 87.5293
494.119 80.6337
494.185 73.3174
494.251 65.8539
494.307 59.4504
494.364 53.2274
494.421 47.2903
494.449 44.4554
494.478 41.7302
494.511 38.6956
494.544 35.8118
494.576 33.0841
494.609 30.5231
494.642 28.1141
494.675 25.8644
494.708 23.7715
494.741 21.8371
494.759 20.8384
494.777 19.8882
494.795 18.9798
494.812 18.1122
494.830 17.2798
494.848 16.4905
494.866 15.7386
494.884 15.0226
494.902 14.3378
494.920 13.6904
494.938 13.0752
494.956 12.4910
494.974 11.9335
494.992 11.4077
495.010 10.9090
495.028 10.4364
495.060 9.63150
495.093 8.90324
495.126 8.24476
495.159 7.65133
495.192 7.11331
495.225 6.62699
495.258 6.18720
495.291 5.79032
495.323 5.42962
495.356 5.10243
495.389 4.80518
495.422 4.53547
495.455 4.28876
495.488 4.06337
495.521 3.85700
495.554 3.66816
495.586 3.49391
495.619 3.33324
495.652 3.18475
495.685 3.04759
495.718 2.91983
495.751 2.80091
495.784 2.68999
495.817 2.58661
495.849 2.48948
495.882 2.39832
495.915 2.31260
495.948 2.23210
496.014 2.08413
496.079 1.95160
496.133 1.85297
496.187 1.76216
496.241 1.67828
496.295 1.60060
496.348 1.52849
496.402 1.46138
496.456 1.39881
496.510 1.34045
496.564 1.28572
496.617 1.23441
496.671 1.18622
496.725 1.14089
496.779 1.09820
496.833 1.05793
496.886 1.01990
496.940 0.984014
497.006 0.942631
497.072 0.903928
497.137 0.867565
497.203 0.833454
497.269 0.801314
497.335 0.771083
497.400 0.742525
497.466 0.715596
497.598 0.666001
497.729 0.621479
497.861 0.581352
497.992 0.545080
498.070 0.525233
498.147 0.506468
498.303 0.471882
498.458 0.440777
498.614 0.412696
498.769 0.387255
498.924 0.364130
499.080 0.343042
499.235 0.323768
499.426 0.302201
499.618 0.282749
499.809 0.265126
500.000 0.249126
500.123 0.239603
500.246 0.230629
500.369 0.222157
500.491 0.214149
500.737 0.199390
500.983 0.186131
501.228 0.174164
501.474 0.163334
501.720 0.153498
501.965 0.144536
502.133 0.138873
502.300 0.133542
502.635 0.123781
502.970 0.115071
503.305 0.107270
503.640 0.100246
503.975 0.0938975
504.310 0.0881400
504.645 0.0829040
504.890 0.0793590
505.136 0.0760423
505.627 0.0700152
506.118 0.0646901
506.610 0.0599634
507.101 0.0557467
507.592 0.0519702
508.083 0.0485732
508.575 0.0455074
509.066 0.0427297
509.557 0.0402055
510.049 0.0379046
510.540 0.0358018
511.031 0.0338739
511.522 0.0321027
512.014 0.0304713
512.505 0.0289674
513.443 0.0264031
514.380 0.0241694
515.318 0.0222159
516.256 0.0204985
517.194 0.0189801
518.132 0.0176310
519.070 0.0164266
520.007 0.0153466
520.990 0.0143305
521.972 0.0134166
522.955 0.0125915
523.937 0.0118438
524.920 0.0111641
525.902 0.0105443
527.867 0.00945746
529.565 0.00865597
531.262 0.00796049
532.959 0.00734730
534.656 0.00680684
536.353 0.00632763
538.050 0.00590046
539.747 0.00551799
541.444 0.00517425
543.230 0.00484875
545.017 0.00455545
548.589 0.00404914
552.162 0.00362978
555.735 0.00327802
559.307 0.00298025
562.880 0.00272605
566.453 0.00250764
570.026 0.00231774
573.598 0.00215129
577.171 0.00200519
584.316 0.00176328
591.462 0.00157125
599.322 0.00140428
607.182 0.00127187
615.042 0.00116598
622.902 0.00108116
625.760 0.00105480
632.905 0.000997966
640.051 0.000951872
654.342 0.000886430
668.633 0.000852713
682.923 0.000845510
694.356 0.000859075
705.789 0.000890978
717.222 0.000943790
728.654 0.00102199
735.800 0.00108698
742.945 0.00116711
750.091 0.00126627
757.236 0.00138850
765.096 0.00155802
772.956 0.00177596
776.886 0.00190794
780.816 0.00205998
784.746 0.00223531
788.676 0.00243798
791.534 0.00260636
792.963 0.00269798
796.893 0.00298153
800.823 0.00331853
804.753 0.00372298
808.683 0.00421394
812.613 0.00481777
814.578 0.00517301
816.543 0.00557158
818.508 0.00602057
820.473 0.00652913
822.438 0.00710807
824.403 0.00777089
826.726 0.00868563
829.048 0.00977435
831.370 0.0110935
832.531 0.0118583
833.692 0.0127070
835.657 0.0143715
836.640 0.0153318
837.622 0.0163936
838.605 0.0175717
839.587 0.0188837
840.570 0.0203509
841.552 0.0219987
842.356 0.0235028
843.160 0.0251687
843.964 0.0270205
844.768 0.0290869
845.572 0.0314020
846.376 0.0340025
847.179 0.0369420
847.983 0.0402904
848.475 0.0425698
848.966 0.0450498
849.457 0.0477555
849.948 0.0507140
850.440 0.0539592
850.931 0.0575280
851.422 0.0614668
851.913 0.0658268
852.405 0.0706724
852.896 0.0760766
853.387 0.0821314
853.878 0.0889433
854.370 0.0966475
854.861 0.105403
855.352 0.115410
855.598 0.120958
855.843 0.126917
856.111 0.133938
856.379 0.141562
856.647 0.149864
856.915 0.158924
857.183 0.168846
857.451 0.179734
857.719 0.191726
857.987 0.204966
858.233 0.218366
858.478 0.233131
858.724 0.249463
858.969 0.267593
859.215 0.287806
859.461 0.310418
859.583 0.322750
859.706 0.335841
859.829 0.349755
859.952 0.364564
860.153 0.390945
860.354 0.420340
860.454 0.436315
860.555 0.453234
860.655 0.471172
860.756 0.490197
860.856 0.510440
860.957 0.531989
861.057 0.554961
861.158 0.579463
861.258 0.605691
861.359 0.633787
861.459 0.663939
861.560 0.696325
861.682 0.739403
861.805 0.786702
861.928 0.838859
862.051 0.896588
862.174 0.960807
862.235 0.995623
862.297 1.03246
862.358 1.07148
862.419 1.11288
862.481 1.15686
862.542 1.20367
862.604 1.25365
862.665 1.30695
862.726 1.36400
862.788 1.42520
862.849 1.49102
862.911 1.56200
862.972 1.63879
863.033 1.72214
863.095 1.81297
863.156 1.91237
863.218 2.02166
863.279 2.14245
863.340 2.27670
863.371 2.34961
863.402 2.42682
863.433 2.50872
863.463 2.59574
863.494 2.68836
863.525 2.78710
863.547 2.86334
863.569 2.94302
863.592 3.02674
863.614 3.11478
863.636 3.20787
863.659 3.30549
863.681 3.40841
863.703 3.51700
863.734 3.67703
863.765 3.84920
863.795 4.03522
863.826 4.23647
863.857 4.45441
863.888 4.69066
863.903 4.81661
863.918 4.94697
863.934 5.08368
863.949 5.22522
863.964 5.37371
863.980 5.52749
863.995 5.68884
864.010 5.85597
864.026 6.03136
864.041 6.21305
864.056 6.40373
864.072 6.60127
864.087 6.80860
864.102 7.02337
864.118 7.24877
864.133 7.48225
864.149 7.72725
864.164 7.98098
864.179 8.24719
864.195 8.52284
864.213 8.86581
864.231 9.22386
864.249 9.60169
864.267 9.99594
864.285 10.4117
864.303 10.8453
864.322 11.3024
864.340 11.7786
864.358 12.2802
864.376 12.8025
864.394 13.3522
864.412 13.9241
864.431 14.5254
864.449 15.1503
864.467 15.8031
864.485 16.4846
864.516 17.7087
864.546 19.0221
864.577 20.4290
864.608 21.9335
864.638 23.5393
864.669 25.2500
864.700 27.0688
864.730 28.9985
864.761 31.0417
864.792 33.2002
864.823 35.4752
864.853 37.8677
864.884 40.3775
864.915 43.0039
864.945 45.7453
864.976 48.5993
865.007 51.5626
865.037 54.6308
865.068 57.7986
865.099 61.0597
865.160 67.8309
865.222 74.8727
865.294 83.4265
865.367 92.0616
865.428 99.2819
865.490 106.277
865.551 112.945
865.612 119.114
865.674 124.662
865.735 129.456
865.796 133.353
865.856 136.322
865.914 138.215
865.971 139.168
866.000 139.283
866.010 139.268
866.041 139.034
866.072 138.518
866.134 136.656
866.181 134.553
866.228 131.880
866.273 128.769
866.319 125.204
866.377 120.061
866.434 114.358
866.480 109.540
866.525 104.506
866.616 93.9786
866.798 72.5095
866.868 64.5685
866.939 57.0393
866.974 53.4550
867.009 50.0035
867.044 46.6921
867.079 43.5262
867.124 39.6454
867.170 36.0208
867.215 32.6534
867.238 31.0690
867.261 29.5476
867.284 28.0820
867.306 26.6844
867.329 25.3469
867.352 24.0686
867.375 22.8428
867.397 21.6790
867.420 20.5701
867.443 19.5146
867.465 18.5067
867.488 17.5534
867.511 16.6487
867.534 15.7907
867.556 14.9742
867.579 14.2047
867.602 13.4767
867.624 12.7885
867.647 12.1355
867.670 11.5219
867.693 10.9429
867.715 10.3970
867.738 9.88240
867.761 9.39767
867.783 8.94123
867.806 8.51159
867.829 8.10560
867.852 7.72541
867.874 7.36785
867.897 7.03164
867.920 6.71420
867.943 6.41711
867.965 6.13783
867.988 5.87526
868.011 5.62735
868.033 5.39528
868.056 5.17701
868.079 4.97166
868.102 4.77760
868.124 4.59573
868.147 4.42446
868.170 4.26307
868.193 4.11028
868.215 3.96681
868.261 3.70352
868.306 3.46787
868.352 3.25725
868.397 3.06756
868.442 2.89689
868.488 2.74211
868.533 2.60185
868.579 2.47372
868.624 2.35675
868.670 2.24913
868.715 2.15021
868.761 2.05857
868.806 1.97379
868.852 1.89478
868.897 1.82126
868.942 1.75238
868.988 1.68797
869.033 1.62734
869.079 1.57040
869.170 1.46587
869.260 1.37240
869.331 1.30650
869.401 1.24564
869.471 1.18911
869.541 1.13663
869.612 1.08766
869.682 1.04200
869.752 0.999284
869.822 0.959246
869.893 0.921606
869.963 0.886266
870.033 0.852942
870.103 0.821566
870.174 0.791899
870.244 0.763895
870.384 0.712275
870.475 0.681662
870.566 0.653024
870.657 0.626192
870.748 0.601013
870.839 0.577351
870.930 0.555085
871.021 0.534104
871.111 0.514311
871.202 0.495615
871.293 0.477936
871.475 0.445341
871.657 0.416012
871.839 0.389523
872.020 0.365513
872.202 0.343681
872.384 0.323767
872.566 0.305554
872.748 0.288850
872.929 0.273493
873.111 0.259340
873.293 0.246274
873.475 0.234172
873.657 0.222945
873.838 0.212511
874.020 0.202794
874.202 0.193730
874.384 0.185262
874.566 0.177338
874.747 0.169914
875.111 0.156402
875.475 0.144445
875.838 0.133812
876.202 0.124318
876.565 0.115800
876.929 0.108130
877.292 0.101199
877.656 0.0949153
878.020 0.0892001
878.383 0.0839868
878.747 0.0792183
879.110 0.0748467
879.672 0.0687714
880.234 0.0634127
880.796 0.0586603
881.358 0.0544201
881.920 0.0506199
882.482 0.0472032
883.044 0.0441211
883.606 0.0413315
884.333 0.0380976
885.060 0.0352290
885.787 0.0326728
886.514 0.0303855
887.241 0.0283300
887.969 0.0264764
888.696 0.0247990
889.423 0.0232764
890.216 0.0217698
891.010 0.0204050
892.596 0.0180345
894.183 0.0160558
895.769 0.0143903
896.827 0.0134179
897.356 0.0130147
897.620 0.0130188
897.752 0.0132422
897.885 0.0138186
898.017 0.0150654
898.083 0.0160974
898.149 0.0175240
898.215 0.0194669
898.281 0.0220780
898.347 0.0255428
898.413 0.0300858
898.480 0.0359733
898.546 0.0435170
898.612 0.0530754
898.678 0.0650533
898.744 0.0798994
898.810 0.0981013
898.876 0.120177
898.942 0.146662
899.008 0.178149
899.075 0.215068
899.141 0.257953
899.207 0.307237
899.273 0.363270
899.339 0.426296
899.405 0.496432
899.471 0.573649
899.537 0.657756
899.603 0.748392
899.669 0.845024
899.736 0.946953
899.802 1.05332
899.868 1.16315
900.000 1.38871
900.000 2.76598
950.000 2.65465
1000.00 2.55317
1062.50 2.45028
1125.00 2.35707
1187.50 2.27216
1250.00 2.19445
1312.50 2.12233
1375.00 2.05579
1437.50 1.99415
1500.00 1.93686
1600.00 1.85793
1700.00 1.78672
1850.00 1.69248
2000.00 1.61000
2125.00 1.55320
2250.00 1.50147
2375.00 1.45414
2500.00 1.41061
2625.00 1.37139
2750.00 1.33501
3000.00 1.26954
3250.00 1.21651
3500.00 1.16939
3750.00 1.12795
4000.00 1.09052
4250.00 1.05797
4500.00 1.02816
4750.00 1.00075
5000.00 0.975413
5500.00 0.932154
6000.00 0.894339
6500.00 0.862256
7000.00 0.833578
7500.00 0.807273
8000.00 0.783418
8500.00 0.762004
9000.00 0.742351
10000.0 0.707443
10625.0 0.688254
11250.0 0.670640
12500.0 0.639344
13750.0 0.609316
15000.0 0.583135
16000.0 0.565497
17000.0 0.549414
18500.0 0.526159
20000.0 0.505591
21250.0 0.488601
22500.0 0.473106
23750.0 0.458901
25000.0 0.445820
27500.0 0.422535
30000.0 0.402342
32500.0 0.384280
35000.0 0.368281
37500.0 0.353393
40000.0 0.340012
42500.0 0.327880
45000.0 0.316839
47500.0 0.306737
50000.0 0.297451
52500.0 0.289020
55000.0 0.281204
60000.0 0.267148
65000.0 0.255034
70000.0 0.244308
75000.0 0.234959
80000.0 0.226537
85000.0 0.219401
90000.0 0.212879
94999.9 0.206888
99999.9 0.201360
100000 0.201397
106250 0.196306
112500 0.191625
125000 0.183285
137500 0.176055
150000 0.169703
162500 0.165885
175000 0.162427
200000 0.156376
225000 0.153151
250000 0.150322
300000 0.147831
400000 0.150826
500000 0.153190
501666 0.153287
503487 0.152710
505307 0.152136
508948 0.151003
512589 0.149885
516230 0.148784
523512 0.146629
530794 0.144534
538076 0.142496
545358 0.140515
559923 0.136709
574487 0.133100
589051 0.129673
603615 0.126415
618179 0.123314
619458 0.122848
620736 0.122385
623293 0.121467
628407 0.119663
633521 0.117900
638634 0.116177
648862 0.112845
659090 0.109658
669317 0.106609
679545 0.103688
689772 0.100890
700000 0.0982065
719663 0.0963762
722174 0.0962016
724684 0.0960279
729705 0.0956833
734726 0.0953422
739747 0.0950047
749789 0.0943400
759832 0.0936887
769874 0.0930504
779916 0.0924246
800000 0.0912090
812500 0.0909188
825000 0.0906340
837500 0.0903543
850000 0.0900796
862500 0.0898097
875000 0.0895445
887500 0.0892839
900000 0.0890276
923790 0.0889746
947580 0.0889229
971370 0.0888725
995160 0.0888234
997580 0.0877411
1.00000E+06 0.0866746
1.00781E+06 0.0864047
1.01563E+06 0.0861378
1.02344E+06 0.0858738
1.03125E+06 0.0856125
1.03906E+06 0.0853540
1.04688E+06 0.0850982
1.05469E+06 0.0848451
1.06250E+06 0.0845946
1.07031E+06 0.0843466
1.07813E+06 0.0841012
1.08594E+06 0.0838582
1.09375E+06 0.0836177
1.10156E+06 0.0833796
1.10938E+06 0.0831438
1.11719E+06 0.0829104
1.12500E+06 0.0826792
1.13281E+06 0.0824502
1.14063E+06 0.0822235
1.14844E+06 0.0819989
1.15625E+06 0.0817765
1.16406E+06 0.0815561
1.17188E+06 0.0813379
1.17969E+06 0.0811216
1.18750E+06 0.0809073
1.19531E+06 0.0806950
1.20313E+06 0.0804847
1.21094E+06 0.0802762
1.21875E+06 0.0800696
1.22656E+06 0.0798649
1.23438E+06 0.0796620
1.24219E+06 0.0794609
1.25000E+06 0.0792615
1.26034E+06 0.0793573
1.27067E+06 0.0794525
1.28101E+06 0.0795470
1.29134E+06 0.0796408
1.29565E+06 0.0795688
1.29996E+06 0.0794972
1.30858E+06 0.0793548
1.31720E+06 0.0792136
1.32582E+06 0.0790736
1.33443E+06 0.0789347
1.34305E+06 0.0787970
1.35167E+06 0.0786604
1.36029E+06 0.0785249
1.36891E+06 0.0783904
1.37753E+06 0.0782571
1.38615E+06 0.0781248
1.39477E+06 0.0779935
1.40338E+06 0.0778633
1.41200E+06 0.0777341
1.42062E+06 0.0776058
1.42924E+06 0.0774786
1.43366E+06 0.0773258
1.43809E+06 0.0771738
1.44693E+06 0.0768721
1.45578E+06 0.0765734
1.46462E+06 0.0762777
1.47347E+06 0.0759849
1.48231E+06 0.0756949
1.49116E+06 0.0754078
1.50000E+06 0.0751234
1.50926E+06 0.0751458
1.51852E+06 0.0751681
1.52778E+06 0.0751902
1.53704E+06 0.0752122
1.54629E+06 0.0752341
1.55555E+06 0.0752559
1.56481E+06 0.0752775
1.57407E+06 0.0752991
1.58333E+06 0.0753205
1.59259E+06 0.0753417
1.60185E+06 0.0753629
1.61111E+06 0.0753839
1.62036E+06 0.0754049
1.62962E+06 0.0754257
1.63888E+06 0.0754464
1.64814E+06 0.0754670
1.64814E+06 0.0754670
1.65445E+06 0.0754582
1.66077E+06 0.0754495
1.66708E+06 0.0754408
1.67339E+06 0.0754321
1.67970E+06 0.0754235
1.68601E+06 0.0754149
1.69232E+06 0.0754063
1.69863E+06 0.0753978
1.70494E+06 0.0753893
1.71125E+06 0.0753808
1.71756E+06 0.0753723
1.72388E+06 0.0753639
1.73019E+06 0.0753556
1.73650E+06 0.0753472
1.74281E+06 0.0753389
1.74912E+06 0.0753306
1.74912E+06 0.0753303
1.75000E+06 0.0751874
1.75641E+06 0.0751101
1.76282E+06 0.0750331
1.76923E+06 0.0749565
1.77564E+06 0.0748803
1.78204E+06 0.0748044
1.78845E+06 0.0747288
1.79486E+06 0.0746536
1.80127E+06 0.0745788
1.80128E+06 0.0745787
1.80624E+06 0.0744626
1.81121E+06 0.0743471
1.82115E+06 0.0741175
1.83108E+06 0.0738899
1.84102E+06 0.0736641
1.84102E+06 0.0736640
1.84512E+06 0.0735351
1.84922E+06 0.0734067
1.85742E+06 0.0731514
1.86561E+06 0.0728981
1.87381E+06 0.0726468
1.87926E+06 0.0724988
1.88472E+06 0.0723515
1.89017E+06 0.0722049
1.89563E+06 0.0720591
1.90108E+06 0.0719140
1.90653E+06 0.0717695
1.91199E+06 0.0716258
1.91744E+06 0.0714828
1.92289E+06 0.0713405
1.92835E+06 0.0711988
1.93380E+06 0.0710578
1.93926E+06 0.0709175
1.94471E+06 0.0707779
1.95016E+06 0.0706389
1.95562E+06 0.0705006
1.96107E+06 0.0703630
1.96611E+06 0.0702900
1.97116E+06 0.0702173
1.98124E+06 0.0700727
1.98124E+06 0.0700726
1.98619E+06 0.0699318
1.99113E+06 0.0697915
1.99557E+06 0.0696350
2.00000E+06 0.0694791
2.01059E+06 0.0692895
2.02119E+06 0.0691013
2.03178E+06 0.0689147
2.04237E+06 0.0687295
2.04237E+06 0.0687295
2.04685E+06 0.0686885
2.05133E+06 0.0686476
2.06028E+06 0.0685662
2.06923E+06 0.0684853
2.07818E+06 0.0684048
2.07819E+06 0.0684047
2.08426E+06 0.0682749
2.09034E+06 0.0681458
2.09642E+06 0.0680172
2.10250E+06 0.0678893
2.10889E+06 0.0677146
2.11528E+06 0.0675408
2.12167E+06 0.0673681
2.12806E+06 0.0671963
2.13445E+06 0.0670254
2.14084E+06 0.0668555
2.14723E+06 0.0666865
2.15362E+06 0.0665184
2.16001E+06 0.0663513
2.16640E+06 0.0661851
2.17279E+06 0.0660198
2.17918E+06 0.0658553
2.18557E+06 0.0656918
2.19196E+06 0.0655292
2.19835E+06 0.0653674
2.20474E+06 0.0652065
2.21113E+06 0.0650464
2.21752E+06 0.0648872
2.22391E+06 0.0647289
2.23030E+06 0.0645714
2.23669E+06 0.0644147
2.24308E+06 0.0642589
2.24947E+06 0.0641038
2.25586E+06 0.0639496
2.26226E+06 0.0637962
2.26865E+06 0.0636436
2.27504E+06 0.0634917
2.28143E+06 0.0633407
2.28782E+06 0.0631905
2.29421E+06 0.0630410
2.30060E+06 0.0628923
2.30699E+06 0.0627443
2.31338E+06 0.0625971
2.31977E+06 0.0624507
2.32616E+06 0.0623050
2.33255E+06 0.0621600
2.33894E+06 0.0620157
2.34533E+06 0.0618722
2.35172E+06 0.0617295
2.35811E+06 0.0615874
2.36450E+06 0.0614460
2.37089E+06 0.0613054
2.37728E+06 0.0611654
2.38367E+06 0.0610262
2.39006E+06 0.0608876
2.39645E+06 0.0607497
2.40284E+06 0.0606125
2.40923E+06 0.0604760
2.41562E+06 0.0603401
2.42201E+06 0.0602049
2.42840E+06 0.0600703
2.43479E+06 0.0599364
2.44118E+06 0.0598032
2.44757E+06 0.0596706
2.45396E+06 0.0595386
2.46035E+06 0.0594073
2.46674E+06 0.0592766
2.47313E+06 0.0591465
2.47952E+06 0.0590171
2.48591E+06 0.0588882
2.49230E+06 0.0587600
2.49869E+06 0.0586324
2.50508E+06 0.0585054
2.51147E+06 0.0583789
2.51910E+06 0.0582287
2.52674E+06 0.0580793
2.53437E+06 0.0579307
2.54200E+06 0.0577830
2.54964E+06 0.0576360
2.55727E+06 0.0574899
2.56490E+06 0.0573446
2.57254E+06 0.0572001
2.58017E+06 0.0570564
2.58780E+06 0.0569134
2.59544E+06 0.0567713
2.60307E+06 0.0566299
2.61070E+06 0.0564892
2.61834E+06 0.0563494
2.62597E+06 0.0562103
2.63360E+06 0.0560719
2.64124E+06 0.0559343
2.64887E+06 0.0557974
2.65650E+06 0.0556612
2.66414E+06 0.0555258
2.67177E+06 0.0553910
2.67940E+06 0.0552570
2.68704E+06 0.0551237
2.69467E+06 0.0549911
2.70230E+06 0.0548591
2.70994E+06 0.0547279
2.71757E+06 0.0545974
2.72520E+06 0.0544675
2.73284E+06 0.0543383
2.74047E+06 0.0542097
2.74810E+06 0.0540818
2.75574E+06 0.0539546
2.76337E+06 0.0538280
2.77100E+06 0.0537021
2.77864E+06 0.0535768
2.78627E+06 0.0534521
2.79390E+06 0.0533281
2.80154E+06 0.0532047
2.80917E+06 0.0530819
2.81680E+06 0.0529597
2.82444E+06 0.0528382
2.83207E+06 0.0527172
2.83970E+06 0.0525969
2.84734E+06 0.0524771
2.85497E+06 0.0523580
2.86260E+06 0.0522394
2.87024E+06 0.0521214
2.87787E+06 0.0520040
2.88550E+06 0.0518872
2.89314E+06 0.0517709
2.90077E+06 0.0516552
2.90840E+06 0.0515401
2.91604E+06 0.0514255
2.92367E+06 0.0513114
2.93130E+06 0.0511980
2.93893E+06 0.0510850
2.94657E+06 0.0509726
2.95420E+06 0.0508608
2.96183E+06 0.0507495
2.96947E+06 0.0506387
2.97710E+06 0.0505284
2.98473E+06 0.0504186
2.99237E+06 0.0503094
3.00000E+06 0.0502007
3.00722E+06 0.0499304
3.01445E+06 0.0496623
3.02167E+06 0.0493962
3.02889E+06 0.0491322
3.03611E+06 0.0488702
3.04334E+06 0.0486103
3.05056E+06 0.0483523
3.05778E+06 0.0480963
3.06500E+06 0.0478423
3.07223E+06 0.0475902
3.07945E+06 0.0473400
3.08667E+06 0.0470917
3.09389E+06 0.0468453
3.10112E+06 0.0466007
3.10834E+06 0.0463580
3.11556E+06 0.0461171
3.12278E+06 0.0458780
3.13001E+06 0.0456407
3.13723E+06 0.0454052
3.14445E+06 0.0451714
3.15167E+06 0.0449394
3.15890E+06 0.0447091
3.16612E+06 0.0444804
3.17334E+06 0.0442535
3.18056E+06 0.0440283
3.18779E+06 0.0438047
3.19501E+06 0.0435827
3.20223E+06 0.0433623
3.20945E+06 0.0431436
3.21668E+06 0.0429264
3.22390E+06 0.0427109
3.23112E+06 0.0424969
3.23713E+06 0.0423200
3.24313E+06 0.0421443
3.24914E+06 0.0419696
3.25515E+06 0.0417959
3.26116E+06 0.0416233
3.26716E+06 0.0414517
3.27317E+06 0.0412811
3.27918E+06 0.0411116
3.28518E+06 0.0409431
3.29119E+06 0.0407755
3.29720E+06 0.0406089
3.30320E+06 0.0404433
3.30921E+06 0.0402787
3.31522E+06 0.0401151
3.32122E+06 0.0399524
3.32723E+06 0.0397907
3.33324E+06 0.0396299
3.33924E+06 0.0394701
3.34525E+06 0.0393111
3.35126E+06 0.0391531
3.35727E+06 0.0389961
3.36327E+06 0.0388399
3.36928E+06 0.0386846
3.37529E+06 0.0385303
3.38129E+06 0.0383768
3.38730E+06 0.0382242
3.39331E+06 0.0380724
3.39931E+06 0.0379216
3.40532E+06 0.0377716
3.41133E+06 0.0376224
3.41733E+06 0.0374742
3.42334E+06 0.0373267
3.42935E+06 0.0371801
3.43535E+06 0.0370343
3.44136E+06 0.0368894
3.44737E+06 0.0367453
3.45338E+06 0.0366019
3.45938E+06 0.0364594
3.46539E+06 0.0363177
3.47140E+06 0.0361768
3.47740E+06 0.0360367
3.48341E+06 0.0358973
3.48942E+06 0.0357587
3.49542E+06 0.0356210
3.50143E+06 0.0354839
3.50744E+06 0.0353476
3.51344E+06 0.0352121
3.51945E+06 0.0350774
3.52546E+06 0.0349434
3.53146E+06 0.0348101
3.53747E+06 0.0346775
3.54348E+06 0.0345457
3.54949E+06 0.0344146
3.55549E+06 0.0342842
3.56150E+06 0.0341546
3.56751E+06 0.0340256
3.57351E+06 0.0338974
3.57952E+06 0.0337698
3.58553E+06 0.0336429
3.59153E+06 0.0335167
3.59754E+06 0.0333912
3.60355E+06 0.0332664
3.60955E+06 0.0331423
3.61556E+06 0.0330188
3.62157E+06 0.0328960
3.62757E+06 0.0327739
3.63358E+06 0.0326524
3.63959E+06 0.0325315
3.64560E+06 0.0324113
3.65160E+06 0.0322917
3.65761E+06 0.0321728
3.66362E+06 0.0320545
3.66962E+06 0.0319369
3.67563E+06 0.0318198
3.68164E+06 0.0317034
3.68764E+06 0.0315876
3.69365E+06 0.0314724
3.69966E+06 0.0313578
3.70566E+06 0.0312438
3.71167E+06 0.0311304
3.71768E+06 0.0310176
3.72368E+06 0.0309054
3.72969E+06 0.0307938
3.73570E+06 0.0306828
3.74171E+06 0.0305723
3.74771E+06 0.0304624
3.75372E+06 0.0303531
3.75973E+06 0.0302444
3.76573E+06 0.0301362
3.77174E+06 0.0300285
3.77775E+06 0.0299215
3.78375E+06 0.0298149
3.78976E+06 0.0297089
3.79577E+06 0.0296035
3.80177E+06 0.0294986
3.80778E+06 0.0293943
3.81379E+06 0.0292904
3.81979E+06 0.0291871
3.82580E+06 0.0290844
3.83181E+06 0.0289821
3.83782E+06 0.0288804
3.84382E+06 0.0287792
3.84983E+06 0.0286785
3.85584E+06 0.0285783
3.86184E+06 0.0284786
3.86785E+06 0.0283794
3.87386E+06 0.0282807
3.87986E+06 0.0281825
3.88587E+06 0.0280848
3.89188E+06 0.0279876
3.89788E+06 0.0278909
3.90389E+06 0.0277947
3.90990E+06 0.0276989
3.91590E+06 0.0276036
3.92191E+06 0.0275088
3.92792E+06 0.0274145
3.93393E+06 0.0273206
3.93993E+06 0.0272272
3.94594E+06 0.0271342
3.95195E+06 0.0270417
3.95795E+06 0.0269497
3.96396E+06 0.0268581
3.96997E+06 0.0267670
3.97597E+06 0.0266763
3.98198E+06 0.0265860
3.98799E+06 0.0264962
3.99399E+06 0.0264068
4.00000E+06 0.0263179
4.00781E+06 0.0261202
4.01563E+06 0.0259244
4.02344E+06 0.0257304
4.03125E+06 0.0255383
4.03906E+06 0.0253480
4.04688E+06 0.0251594
4.05469E+06 0.0249726
4.06250E+06 0.0247876
4.07031E+06 0.0246042
4.07813E+06 0.0244226
4.08594E+06 0.0242427
4.09375E+06 0.0240644
4.10156E+06 0.0238878
4.10938E+06 0.0237128
4.11719E+06 0.0235394
4.12500E+06 0.0233676
4.13281E+06 0.0231973
4.14063E+06 0.0230287
4.14844E+06 0.0228616
4.15625E+06 0.0226960
4.16406E+06 0.0225319
4.17188E+06 0.0223693
4.17969E+06 0.0222081
4.18750E+06 0.0220485
4.19531E+06 0.0218903
4.20313E+06 0.0217335
4.21094E+06 0.0215781
4.21875E+06 0.0214241
4.22656E+06 0.0212715
4.23438E+06 0.0211202
4.24219E+06 0.0209703
4.25000E+06 0.0208218
4.25781E+06 0.0206745
4.26563E+06 0.0205286
4.27344E+06 0.0203840
4.28125E+06 0.0202406
4.28906E+06 0.0200985
4.29688E+06 0.0199577
4.30469E+06 0.0198181
4.31250E+06 0.0196798
4.32031E+06 0.0195426
4.32813E+06 0.0194067
4.33594E+06 0.0192719
4.34375E+06 0.0191383
4.35156E+06 0.0190059
4.35938E+06 0.0188746
4.36719E+06 0.0187445
4.37500E+06 0.0186155
4.38281E+06 0.0184876
4.39063E+06 0.0183608
4.39844E+06 0.0182351
4.40625E+06 0.0181105
4.41406E+06 0.0179869
4.42188E+06 0.0178645
4.42969E+06 0.0177430
4.43750E+06 0.0176226
4.44531E+06 0.0175033
4.45313E+06 0.0173849
4.46094E+06 0.0172676
4.46875E+06 0.0171512
4.47656E+06 0.0170358
4.48438E+06 0.0169215
4.49219E+06 0.0168080
4.50000E+06 0.0166956
4.50781E+06 0.0165840
4.51563E+06 0.0164734
4.52344E+06 0.0163638
4.53125E+06 0.0162550
4.53906E+06 0.0161472
4.54688E+06 0.0160402
4.55469E+06 0.0159342
4.56250E+06 0.0158290
4.57031E+06 0.0157247
4.57813E+06 0.0156213
4.58594E+06 0.0155187
4.59375E+06 0.0154170
4.60156E+06 0.0153161
4.60938E+06 0.0152160
4.61719E+06 0.0151168
4.62500E+06 0.0150184
4.63281E+06 0.0149207
4.64063E+06 0.0148239
4.64844E+06 0.0147279
4.65625E+06 0.0146326
4.66406E+06 0.0145381
4.67188E+06 0.0144444
4.67969E+06 0.0143515
4.68750E+06 0.0142593
4.69531E+06 0.0141678
4.70313E+06 0.0140771
4.71094E+06 0.0139871
4.71875E+06 0.0138979
4.72656E+06 0.0138093
4.73438E+06 0.0137215
4.74219E+06 0.0136343
4.75000E+06 0.0135479
4.75781E+06 0.0134621
4.76563E+06 0.0133770
4.77344E+06 0.0132926
4.78125E+06 0.0132089
4.78906E+06 0.0131258
4.79688E+06 0.0130434
4.80469E+06 0.0129617
4.81250E+06 0.0128806
4.82031E+06 0.0128001
4.82813E+06 0.0127202
4.83594E+06 0.0126410
4.84375E+06 0.0125624
4.85156E+06 0.0124844
4.85938E+06 0.0124071
4.86719E+06 0.0123303
4.87500E+06 0.0122541
4.88281E+06 0.0121785
4.89063E+06 0.0121035
4.89844E+06 0.0120291
4.90625E+06 0.0119553
4.91406E+06 0.0118820
4.92188E+06 0.0118093
4.92969E+06 0.0117371
4.93750E+06 0.0116655
4.94531E+06 0.0115945
4.95313E+06 0.0115240
4.96094E+06 0.0114540
4.96875E+06 0.0113846
4.97656E+06 0.0113157
4.98438E+06 0.0112473
4.99219E+06 0.0111794
5.00000E+06 0.0111121
5.01491E+06 0.0109516
5.02983E+06 0.0107939
5.04474E+06 0.0106389
5.05965E+06 0.0104866
5.07457E+06 0.0103369
5.08948E+06 0.0101897
5.10440E+06 0.0100451
5.11931E+06 0.00990298
5.13422E+06 0.00976324
5.14914E+06 0.00962588
5.16405E+06 0.00949083
5.17896E+06 0.00935807
5.19388E+06 0.00922753
5.20879E+06 0.00909918
5.22370E+06 0.00897298
5.23862E+06 0.00884889
5.25353E+06 0.00872684
5.26844E+06 0.00860683
5.28336E+06 0.00848879
5.29827E+06 0.00837270
5.31318E+06 0.00825851
5.32810E+06 0.00814621
5.34301E+06 0.00803572
5.35792E+06 0.00792705
5.37284E+06 0.00782013
5.38775E+06 0.00771496
5.40266E+06 0.00761148
5.41758E+06 0.00750967
5.43249E+06 0.00740949
5.44740E+06 0.00731092
5.46232E+06 0.00721393
5.47723E+06 0.00711848
5.49357E+06 0.00702201
5.50990E+06 0.00692712
5.52624E+06 0.00683380
5.54258E+06 0.00674200
5.55891E+06 0.00665170
5.57525E+06 0.00656287
5.59159E+06 0.00647548
5.60792E+06 0.00638951
5.62426E+06 0.00630492
5.64060E+06 0.00622169
5.65693E+06 0.00613979
5.67327E+06 0.00605921
5.68961E+06 0.00597991
5.70594E+06 0.00590187
5.72228E+06 0.00582507
5.73862E+06 0.00574948
5.75495E+06 0.00567508
5.77129E+06 0.00560185
5.78763E+06 0.00552977
5.80396E+06 0.00545882
5.82030E+06 0.00538898
5.83664E+06 0.00532022
5.85297E+06 0.00525252
5.86931E+06 0.00518587
5.88565E+06 0.00512025
5.90198E+06 0.00505564
5.91832E+06 0.00499202
5.93465E+06 0.00492937
5.95099E+06 0.00486768
5.96733E+06 0.00480692
5.98366E+06 0.00474709
6.00000E+06 0.00468816
6.01502E+06 0.00463626
6.03005E+06 0.00458507
6.04507E+06 0.00453457
6.06009E+06 0.00448474
6.07512E+06 0.00443559
6.09014E+06 0.00438709
6.10516E+06 0.00433924
6.12019E+06 0.00429203
6.13521E+06 0.00424545
6.15023E+06 0.00419948
6.16526E+06 0.00415412
6.18028E+06 0.00410936
6.19530E+06 0.00406519
6.21032E+06 0.00402160
6.22535E+06 0.00397858
6.24037E+06 0.00393613
6.25539E+06 0.00389422
6.27042E+06 0.00385286
6.28544E+06 0.00381204
6.30046E+06 0.00377175
6.31549E+06 0.00373197
6.33051E+06 0.00369271
6.34553E+06 0.00365396
6.36056E+06 0.00361570
6.37558E+06 0.00357793
6.39060E+06 0.00354064
6.40563E+06 0.00350383
6.42065E+06 0.00346748
6.43567E+06 0.00343160
6.45069E+06 0.00339617
6.46572E+06 0.00336118
6.48074E+06 0.00332664
6.49918E+06 0.00329089
6.52038E+06 0.00325039
6.54158E+06 0.00321052
6.56278E+06 0.00317126
6.58398E+06 0.00313261
6.60290E+06 0.00309861
6.62183E+06 0.00306507
6.64075E+06 0.00303200
6.65968E+06 0.00299937
6.67860E+06 0.00296718
6.69752E+06 0.00293543
6.71645E+06 0.00290410
6.73537E+06 0.00287320
6.75191E+06 0.00285022
6.76845E+06 0.00282748
6.78499E+06 0.00280497
6.80153E+06 0.00278270
6.81807E+06 0.00276065
6.83461E+06 0.00273884
6.85115E+06 0.00271725
6.86769E+06 0.00269588
6.88423E+06 0.00267473
6.90076E+06 0.00265380
6.91730E+06 0.00263307
6.93384E+06 0.00261256
6.95038E+06 0.00259226
6.96692E+06 0.00257217
6.98346E+06 0.00255227
7.00000E+06 0.00253258
7.01510E+06 0.00251551
7.03021E+06 0.00249859
7.04531E+06 0.00248182
7.06041E+06 0.00246520
7.07552E+06 0.00244873
7.09062E+06 0.00243240
7.10573E+06 0.00241621
7.12083E+06 0.00240017
7.13593E+06 0.00238427
7.15104E+06 0.00236850
7.16614E+06 0.00235287
7.18124E+06 0.00233738
7.19635E+06 0.00232202
7.21145E+06 0.00230680
7.22655E+06 0.00229170
7.24166E+06 0.00227674
7.25676E+06 0.00226190
7.27186E+06 0.00224720
7.28697E+06 0.00223261
7.30207E+06 0.00221815
7.31717E+06 0.00220382
7.33228E+06 0.00218961
7.34738E+06 0.00217551
7.36248E+06 0.00216154
7.37759E+06 0.00214769
7.39269E+06 0.00213395
7.40779E+06 0.00212033
7.42290E+06 0.00210682
7.43800E+06 0.00209342
7.45310E+06 0.00208014
7.46821E+06 0.00206697
7.48331E+06 0.00205391
7.49836E+06 0.00204516
7.51342E+06 0.00203646
7.52847E+06 0.00202781
7.54353E+06 0.00201922
7.55858E+06 0.00201069
7.57363E+06 0.00200220
7.58869E+06 0.00199377
7.60374E+06 0.00198539
7.61749E+06 0.00197778
7.63574E+06 0.00196775
7.65399E+06 0.00195779
7.67224E+06 0.00194791
7.69049E+06 0.00193810
7.70873E+06 0.00192836
7.72698E+06 0.00191869
7.74523E+06 0.00190910
7.76348E+06 0.00189957
7.78173E+06 0.00189012
7.79998E+06 0.00188073
7.81823E+06 0.00187142
7.83648E+06 0.00186217
7.85472E+06 0.00185298
7.87297E+06 0.00184387
7.89122E+06 0.00183482
7.90947E+06 0.00182583
7.92079E+06 0.00182029
7.93210E+06 0.00181478
7.94342E+06 0.00180929
7.95474E+06 0.00180382
7.96605E+06 0.00179838
7.97737E+06 0.00179296
7.98868E+06 0.00178757
8.00000E+06 0.00178220
8.01517E+06 0.00177208
8.03033E+06 0.00176203
8.04550E+06 0.00175206
8.06066E+06 0.00174217
8.07583E+06 0.00173235
8.09099E+06 0.00172260
8.10616E+06 0.00171292
8.12132E+06 0.00170332
8.13649E+06 0.00169379
8.15165E+06 0.00168433
8.16682E+06 0.00167494
8.18198E+06 0.00166562
8.19715E+06 0.00165637
8.21231E+06 0.00164719
8.22748E+06 0.00163808
8.24264E+06 0.00162903
8.25781E+06 0.00162005
8.27297E+06 0.00161113
8.28814E+06 0.00160228
8.30330E+06 0.00159350
8.31847E+06 0.00158478
8.33363E+06 0.00157612
8.34880E+06 0.00156752
8.36396E+06 0.00155899
8.37913E+06 0.00155052
8.39429E+06 0.00154211
8.40946E+06 0.00153376
8.42462E+06 0.00152547
8.43979E+06 0.00151725
8.45495E+06 0.00150908
8.47012E+06 0.00150096
8.48528E+06 0.00149291
8.50680E+06 0.00148553
8.52832E+06 0.00147820
8.54984E+06 0.00147092
8.57136E+06 0.00146370
8.59287E+06 0.00145653
8.61439E+06 0.00144942
8.63591E+06 0.00144236
8.65743E+06 0.00143535
8.67895E+06 0.00142839
8.70047E+06 0.00142148
8.72199E+06 0.00141462
8.74351E+06 0.00140782
8.76502E+06 0.00140106
8.78654E+06 0.00139435
8.80806E+06 0.00138769
8.82958E+06 0.00138107
8.83491E+06 0.00137944
8.84023E+06 0.00137782
8.84556E+06 0.00137619
8.85088E+06 0.00137457
8.85621E+06 0.00137295
8.86153E+06 0.00137134
8.86686E+06 0.00136973
8.87219E+06 0.00136812
8.87751E+06 0.00136651
8.88284E+06 0.00136491
8.88816E+06 0.00136331
8.89349E+06 0.00136171
8.89881E+06 0.00136012
8.90414E+06 0.00135852
8.90947E+06 0.00135693
8.91479E+06 0.00135535
8.92012E+06 0.00135376
8.92544E+06 0.00135218
8.93077E+06 0.00135061
8.93609E+06 0.00134903
8.94142E+06 0.00134746
8.94674E+06 0.00134589
8.95207E+06 0.00134432
8.95740E+06 0.00134276
8.96272E+06 0.00134119
8.96805E+06 0.00133964
8.97337E+06 0.00133808
8.97870E+06 0.00133653
8.98402E+06 0.00133498
8.98935E+06 0.00133343
8.99468E+06 0.00133188
9.00000E+06 0.00133034
9.00761E+06 0.00132821
9.01521E+06 0.00132608
9.02282E+06 0.00132395
9.03043E+06 0.00132183
9.03803E+06 0.00131972
9.04564E+06 0.00131761
9.05325E+06 0.00131551
9.06085E+06 0.00131341
9.06846E+06 0.00131131
9.07607E+06 0.00130923
9.08368E+06 0.00130714
9.09128E+06 0.00130506
9.09889E+06 0.00130299
9.10650E+06 0.00130092
9.11410E+06 0.00129886
9.12171E+06 0.00129680
9.12932E+06 0.00129475
9.13692E+06 0.00129270
9.14453E+06 0.00129066
9.15214E+06 0.00128862
9.15974E+06 0.00128658
9.16735E+06 0.00128456
9.17496E+06 0.00128253
9.18256E+06 0.00128051
9.19017E+06 0.00127850
9.19778E+06 0.00127649
9.20538E+06 0.00127448
9.21299E+06 0.00127249
9.22060E+06 0.00127049
9.22820E+06 0.00126850
9.23581E+06 0.00126652
9.24342E+06 0.00126453
9.25102E+06 0.00126256
9.25863E+06 0.00126059
9.26624E+06 0.00125862
9.27384E+06 0.00125666
9.28145E+06 0.00125470
9.28906E+06 0.00125275
9.29666E+06 0.00125080
9.30427E+06 0.00124886
9.31188E+06 0.00124692
9.31948E+06 0.00124499
9.32709E+06 0.00124306
9.33470E+06 0.00124113
9.34230E+06 0.00123921
9.34991E+06 0.00123730
9.35752E+06 0.00123538
9.36512E+06 0.00123348
9.37273E+06 0.00123158
9.38034E+06 0.00122968
9.38794E+06 0.00122778
9.39555E+06 0.00122590
9.40316E+06 0.00122401
9.41076E+06 0.00122213
9.41837E+06 0.00122026
9.42598E+06 0.00121838
9.43358E+06 0.00121652
9.44119E+06 0.00121465
9.44880E+06 0.00121280
9.45640E+06 0.00121094
9.46401E+06 0.00120909
9.47162E+06 0.00120725
9.47922E+06 0.00120541
9.48683E+06 0.00120357
9.49485E+06 0.00120223
9.50287E+06 0.00120089
9.51089E+06 0.00119956
9.51890E+06 0.00119823
9.52692E+06 0.00119690
9.53494E+06 0.00119557
9.54296E+06 0.00119424
9.55098E+06 0.00119292
9.55900E+06 0.00119160
9.56701E+06 0.00119028
9.57503E+06 0.00118897
9.58305E+06 0.00118766
9.59107E+06 0.00118635
9.59909E+06 0.00118504
9.60711E+06 0.00118374
9.61512E+06 0.00118244
9.62314E+06 0.00118114
9.63116E+06 0.00117984
9.63918E+06 0.00117855
9.64720E+06 0.00117726
9.65522E+06 0.00117597
9.66323E+06 0.00117468
9.67125E+06 0.00117340
9.67927E+06 0.00117211
9.68729E+06 0.00117083
9.69531E+06 0.00116956
9.70332E+06 0.00116828
9.71134E+06 0.00116701
9.71936E+06 0.00116574
9.72738E+06 0.00116447
9.73540E+06 0.00116321
9.74342E+06 0.00116195
9.75143E+06 0.00116069
9.75945E+06 0.00115943
9.76747E+06 0.00115817
9.77549E+06 0.00115692
9.78351E+06 0.00115567
9.79153E+06 0.00115442
9.79954E+06 0.00115318
9.80756E+06 0.00115194
9.81558E+06 0.00115069
9.82360E+06 0.00114946
9.83162E+06 0.00114822
9.83964E+06 0.00114699
9.84765E+06 0.00114575
9.85567E+06 0.00114453
9.86369E+06 0.00114330
9.87171E+06 0.00114207
9.87973E+06 0.00114085
9.88775E+06 0.00113963
9.89576E+06 0.00113841
9.90378E+06 0.00113720
9.91180E+06 0.00113599
9.91982E+06 0.00113477
9.92784E+06 0.00113357
9.93585E+06 0.00113236
9.94387E+06 0.00113116
9.95189E+06 0.00112995
9.95991E+06 0.00112875
9.96793E+06 0.00112756
9.97595E+06 0.00112636
9.98396E+06 0.00112517
9.99198E+06 0.00112398
1.00000E+07 0.00112279
1.00076E+07 0.00112206
1.00153E+07 0.00112132
1.00229E+07 0.00112059
1.00305E+07 0.00111986
1.00381E+07 0.00111913
1.00458E+07 0.00111840
1.00534E+07 0.00111767
1.00610E+07 0.00111694
1.00687E+07 0.00111621
1.00763E+07 0.00111549
1.00839E+07 0.00111476
1.00915E+07 0.00111404
1.00992E+07 0.00111332
1.01068E+07 0.00111260
1.01144E+07 0.00111188
1.01220E+07 0.00111116
1.01297E+07 0.00111044
1.01373E+07 0.00110972
1.01449E+07 0.00110900
1.01525E+07 0.00110829
1.01602E+07 0.00110757
1.01678E+07 0.00110686
1.01754E+07 0.00110615
1.01830E+07 0.00110544
1.01907E+07 0.00110473
1.01983E+07 0.00110402
1.02059E+07 0.00110331
1.02136E+07 0.00110260
1.02212E+07 0.00110190
1.02288E+07 0.00110119
1.02364E+07 0.00110049
1.02441E+07 0.00109978
1.02517E+07 0.00109908
1.02593E+07 0.00109838
1.02669E+07 0.00109768
1.02746E+07 0.00109698
1.02822E+07 0.00109628
1.02898E+07 0.00109558
1.02975E+07 0.00109488
1.03051E+07 0.00109419
1.03127E+07 0.00109349
1.03203E+07 0.00109280
1.03280E+07 0.00109211
1.03356E+07 0.00109141
1.03432E+07 0.00109072
1.03508E+07 0.00109003
1.03585E+07 0.00108934
1.03661E+07 0.00108866
1.03737E+07 0.00108797
1.03813E+07 0.00108728
1.03890E+07 0.00108660
1.03966E+07 0.00108591
1.04042E+07 0.00108523
1.04118E+07 0.00108455
1.04195E+07 0.00108386
1.04271E+07 0.00108318
1.04347E+07 0.00108250
1.04424E+07 0.00108183
1.04500E+07 0.00108115
1.04576E+07 0.00108047
1.04652E+07 0.00107979
1.04729E+07 0.00107912
1.04805E+07 0.00107844
1.04881E+07 0.00107777
1.04961E+07 0.00107707
1.05041E+07 0.00107636
1.05121E+07 0.00107566
1.05201E+07 0.00107496
1.05281E+07 0.00107425
1.05361E+07 0.00107355
1.05441E+07 0.00107286
1.05521E+07 0.00107216
1.05601E+07 0.00107146
1.05681E+07 0.00107076
1.05761E+07 0.00107007
1.05841E+07 0.00106937
1.05921E+07 0.00106868
1.06001E+07 0.00106799
1.06081E+07 0.00106730
1.06161E+07 0.00106661
1.06241E+07 0.00106592
1.06321E+07 0.00106523
1.06401E+07 0.00106454
1.06481E+07 0.00106385
1.06561E+07 0.00106317
1.06641E+07 0.00106248
1.06721E+07 0.00106180
1.06801E+07 0.00106112
1.06881E+07 0.00106043
1.06961E+07 0.00105975
1.07041E+07 0.00105907
1.07121E+07 0.00105839
1.07201E+07 0.00105772
1.07281E+07 0.00105704
1.07361E+07 0.00105636
1.07441E+07 0.00105569
1.07521E+07 0.00105501
1.07601E+07 0.00105434
1.07681E+07 0.00105367
1.07761E+07 0.00105300
1.07841E+07 0.00105232
1.07921E+07 0.00105165
1.08001E+07 0.00105099
1.08080E+07 0.00105032
1.08160E+07 0.00104965
1.08240E+07 0.00104899
1.08320E+07 0.00104832
1.08400E+07 0.00104766
1.08480E+07 0.00104699
1.08560E+07 0.00104633
1.08640E+07 0.00104567
1.08720E+07 0.00104501
1.08800E+07 0.00104435
1.08880E+07 0.00104369
1.08960E+07 0.00104303
1.09040E+07 0.00104237
1.09120E+07 0.00104172
1.09200E+07 0.00104106
1.09280E+07 0.00104041
1.09360E+07 0.00103976
1.09440E+07 0.00103910
1.09520E+07 0.00103845
1.09600E+07 0.00103780
1.09680E+07 0.00103715
1.09760E+07 0.00103650
1.09840E+07 0.00103585
1.09920E+07 0.00103521
1.10000E+07 0.00103456
1.10078E+07 0.00103426
1.10156E+07 0.00103395
1.10234E+07 0.00103365
1.10313E+07 0.00103335
1.10391E+07 0.00103305
1.10469E+07 0.00103275
1.10547E+07 0.00103244
1.10625E+07 0.00103214
1.10703E+07 0.00103184
1.10781E+07 0.00103154
1.10859E+07 0.00103124
1.10938E+07 0.00103094
1.11016E+07 0.00103064
1.11094E+07 0.00103034
1.11172E+07 0.00103004
1.11250E+07 0.00102975
1.11328E+07 0.00102945
1.11406E+07 0.00102915
1.11484E+07 0.00102885
1.11563E+07 0.00102855
1.11641E+07 0.00102826
1.11719E+07 0.00102796
1.11797E+07 0.00102766
1.11875E+07 0.00102737
1.11953E+07 0.00102707
1.12031E+07 0.00102677
1.12109E+07 0.00102648
1.12188E+07 0.00102618
1.12266E+07 0.00102589
1.12344E+07 0.00102559
1.12422E+07 0.00102530
1.12500E+07 0.00102501
1.12578E+07 0.00102471
1.12656E+07 0.00102442
1.12734E+07 0.00102413
1.12813E+07 0.00102383
1.12891E+07 0.00102354
1.12969E+07 0.00102325
1.13047E+07 0.00102296
1.13125E+07 0.00102266
1.13203E+07 0.00102237
1.13281E+07 0.00102208
1.13359E+07 0.00102179
1.13438E+07 0.00102150
1.13516E+07 0.00102121
1.13594E+07 0.00102092
1.13672E+07 0.00102063
1.13750E+07 0.00102034
1.13828E+07 0.00102005
1.13906E+07 0.00101976
1.13984E+07 0.00101947
1.14063E+07 0.00101918
1.14141E+07 0.00101890
1.14219E+07 0.00101861
1.14297E+07 0.00101832
1.14375E+07 0.00101803
1.14453E+07 0.00101775
1.14531E+07 0.00101746
1.14609E+07 0.00101717
1.14688E+07 0.00101689
1.14766E+07 0.00101660
1.14844E+07 0.00101632
1.14922E+07 0.00101603
1.15000E+07 0.00101575
1.15078E+07 0.00101546
1.15156E+07 0.00101518
1.15234E+07 0.00101489
1.15313E+07 0.00101461
1.15391E+07 0.00101432
1.15469E+07 0.00101404
1.15547E+07 0.00101376
1.15625E+07 0.00101348
1.15703E+07 0.00101319
1.15781E+07 0.00101291
1.15859E+07 0.00101263
1.15938E+07 0.00101235
1.16016E+07 0.00101207
1.16094E+07 0.00101178
1.16172E+07 0.00101150
1.16250E+07 0.00101122
1.16328E+07 0.00101094
1.16406E+07 0.00101066
1.16484E+07 0.00101038
1.16563E+07 0.00101010
1.16641E+07 0.00100982
1.16719E+07 0.00100954
1.16797E+07 0.00100926
1.16875E+07 0.00100899
1.16953E+07 0.00100871
1.17031E+07 0.00100843
1.17109E+07 0.00100815
1.17188E+07 0.00100787
1.17266E+07 0.00100760
1.17344E+07 0.00100732
1.17422E+07 0.00100704
1.17500E+07 0.00100677
1.17578E+07 0.00100649
1.17656E+07 0.00100621
1.17734E+07 0.00100594
1.17813E+07 0.00100566
1.17891E+07 0.00100539
1.17969E+07 0.00100511
1.18047E+07 0.00100484
1.18125E+07 0.00100456
1.18203E+07 0.00100429
1.18281E+07 0.00100402
1.18359E+07 0.00100374
1.18438E+07 0.00100347
1.18516E+07 0.00100320
1.18594E+07 0.00100292
1.18672E+07 0.00100265
1.18750E+07 0.00100238
1.18828E+07 0.00100211
1.18906E+07 0.00100183
1.18984E+07 0.00100156
1.19063E+07 0.00100129
1.19141E+07 0.00100102
1.19219E+07 0.00100075
1.19297E+07 0.00100048
1.19375E+07 0.00100021
1.19453E+07 0.000999937
1.19531E+07 0.000999667
1.19609E+07 0.000999397
1.19688E+07 0.000999128
1.19766E+07 0.000998859
1.19844E+07 0.000998590
1.19922E+07 0.000998321
1.20000E+07 0.000998053
1.20078E+07 0.000997997
1.20156E+07 0.000997940
1.20234E+07 0.000997884
1.20313E+07 0.000997827
1.20391E+07 0.000997771
1.20469E+07 0.000997715
1.20547E+07 0.000997659
1.20625E+07 0.000997602
1.20703E+07 0.000997546
1.20781E+07 0.000997490
1.20859E+07 0.000997434
1.20938E+07 0.000997378
1.21016E+07 0.000997322
1.21094E+07 0.000997266
1.21172E+07 0.000997210
1.21250E+07 0.000997154
1.21328E+07 0.000997098
1.21406E+07 0.000997042
1.21484E+07 0.000996987
1.21563E+07 0.000996931
1.21641E+07 0.000996875
1.21719E+07 0.000996820
1.21797E+07 0.000996764
1.21875E+07 0.000996708
1.21953E+07 0.000996653
1.22031E+07 0.000996597
1.22109E+07 0.000996542
1.22188E+07 0.000996487
1.22266E+07 0.000996431
1.22344E+07 0.000996376
1.22422E+07 0.000996321
1.22500E+07 0.000996265
1.22578E+07 0.000996210
1.22656E+07 0.000996155
1.22734E+07 0.000996100
1.22813E+07 0.000996045
1.22891E+07 0.000995989
1.22969E+07 0.000995934
1.23047E+07 0.000995879
1.23125E+07 0.000995825
1.23203E+07 0.000995770
1.23281E+07 0.000995715
1.23359E+07 0.000995660
1.23438E+07 0.000995605
1.23516E+07 0.000995550
1.23594E+07 0.000995496
1.23672E+07 0.000995441
1.23750E+07 0.000995386
1.23828E+07 0.000995332
1.23906E+07 0.000995277
1.23984E+07 0.000995222
1.24063E+07 0.000995168
1.24141E+07 0.000995113
1.24219E+07 0.000995059
1.24297E+07 0.000995005
1.24375E+07 0.000994950
1.24453E+07 0.000994896
1.24531E+07 0.000994842
1.24609E+07 0.000994787
1.24688E+07 0.000994733
1.24766E+07 0.000994679
1.24844E+07 0.000994625
1.24922E+07 0.000994571
1.25000E+07 0.000994517
1.25078E+07 0.000994463
1.25156E+07 0.000994409
1.25234E+07 0.000994355
1.25313E+07 0.000994301
1.25391E+07 0.000994247
1.25469E+07 0.000994193
1.25547E+07 0.000994139
1.25625E+07 0.000994086
1.25703E+07 0.000994032
1.25781E+07 0.000993978
1.25859E+07 0.000993924
1.25938E+07 0.000993871
1.26016E+07 0.000993817
1.26094E+07 0.000993764
1.26172E+07 0.000993710
1.26250E+07 0.000993657
1.26328E+07 0.000993603
1.26406E+07 0.000993550
1.26484E+07 0.000993496
1.26563E+07 0.000993443
1.26641E+07 0.000993390
1.26719E+07 0.000993336
1.26797E+07 0.000993283
1.26875E+07 0.000993230
1.26953E+07 0.000993177
1.27031E+07 0.000993124
1.27109E+07 0.000993071
1.27188E+07 0.000993018
1.27266E+07 0.000992965
1.27344E+07 0.000992912
1.27422E+07 0.000992859
1.27500E+07 0.000992806
1.27578E+07 0.000992753
1.27656E+07 0.000992700
1.27734E+07 0.000992647
1.27813E+07 0.000992595
1.27891E+07 0.000992542
1.27969E+07 0.000992489
1.28047E+07 0.000992436
1.28125E+07 0.000992384
1.28203E+07 0.000992331
1.28281E+07 0.000992279
1.28359E+07 0.000992226
1.28438E+07 0.000992174
1.28516E+07 0.000992121
1.28594E+07 0.000992069
1.28672E+07 0.000992016
1.28750E+07 0.000991964
1.28828E+07 0.000991912
1.28906E+07 0.000991859
1.28984E+07 0.000991807
1.29063E+07 0.000991755
1.29141E+07 0.000991703
1.29219E+07 0.000991651
1.29297E+07 0.000991598
1.29375E+07 0.000991546
1.29453E+07 0.000991494
1.29531E+07 0.000991442
1.29609E+07 0.000991390
1.29688E+07 0.000991338
1.29766E+07 0.000991286
1.29844E+07 0.000991235
1.29922E+07 0.000991183
1.30000E+07 0.000991131
1.30066E+07 0.000991213
1.30132E+07 0.000991294
1.30198E+07 0.000991376
1.30264E+07 0.000991457
1.30329E+07 0.000991539
1.30395E+07 0.000991620
1.30461E+07 0.000991702
1.30527E+07 0.000991783
1.30593E+07 0.000991864
1.30659E+07 0.000991946
1.30725E+07 0.000992027
1.30791E+07 0.000992108
1.30856E+07 0.000992189
1.30922E+07 0.000992270
1.30988E+07 0.000992351
1.31054E+07 0.000992432
1.31120E+07 0.000992514
1.31186E+07 0.000992595
1.31252E+07 0.000992676
1.31318E+07 0.000992756
1.31383E+07 0.000992837
1.31449E+07 0.000992918
1.31515E+07 0.000992999
1.31581E+07 0.000993080
1.31647E+07 0.000993161
1.31713E+07 0.000993242
1.31845E+07 0.000993403
1.31976E+07 0.000993564
1.32108E+07 0.000993725
1.32240E+07 0.000993886
1.32372E+07 0.000994047
1.32503E+07 0.000994208
1.32635E+07 0.000994368
1.32767E+07 0.000994529
1.32899E+07 0.000994689
1.33030E+07 0.000994849
1.33162E+07 0.000995009
1.33294E+07 0.000995169
1.33426E+07 0.000995329
1.33557E+07 0.000995489
1.33689E+07 0.000995648
1.33821E+07 0.000995808
1.33953E+07 0.000995967
1.34084E+07 0.000996126
1.34216E+07 0.000996285
1.34348E+07 0.000996444
1.34480E+07 0.000996603
1.34611E+07 0.000996761
1.34743E+07 0.000996920
1.34875E+07 0.000997078
1.35007E+07 0.000997236
1.35138E+07 0.000997395
1.35270E+07 0.000997553
1.35402E+07 0.000997710
1.35534E+07 0.000997868
1.35665E+07 0.000998026
1.35797E+07 0.000998183
1.35929E+07 0.000998340
1.36061E+07 0.000998498
1.36192E+07 0.000998655
1.36324E+07 0.000998812
1.36456E+07 0.000998968
1.36588E+07 0.000999125
1.36719E+07 0.000999282
1.36851E+07 0.000999438
1.36983E+07 0.000999594
1.37115E+07 0.000999751
1.37246E+07 0.000999907
1.37378E+07 0.00100006
1.37510E+07 0.00100022
1.37642E+07 0.00100037
1.37773E+07 0.00100053
1.37905E+07 0.00100069
1.38037E+07 0.00100084
1.38169E+07 0.00100100
1.38300E+07 0.00100115
1.38432E+07 0.00100131
1.38530E+07 0.00100142
1.38628E+07 0.00100154
1.38726E+07 0.00100165
1.38824E+07 0.00100177
1.38922E+07 0.00100188
1.39020E+07 0.00100200
1.39118E+07 0.00100211
1.39216E+07 0.00100223
1.39314E+07 0.00100234
1.39412E+07 0.00100245
1.39510E+07 0.00100257
1.39608E+07 0.00100268
1.39706E+07 0.00100280
1.39804E+07 0.00100291
1.39902E+07 0.00100303
1.40000E+07 0.00100314
1.40156E+07 0.00100355
1.40313E+07 0.00100397
1.40469E+07 0.00100438
1.40625E+07 0.00100479
1.40781E+07 0.00100521
1.40938E+07 0.00100562
1.41094E+07 0.00100603
1.41250E+07 0.00100644
1.41406E+07 0.00100685
1.41563E+07 0.00100726
1.41719E+07 0.00100768
1.41875E+07 0.00100809
1.42031E+07 0.00100850
1.42188E+07 0.00100891
1.42344E+07 0.00100932
1.42500E+07 0.00100972
1.42656E+07 0.00101013
1.42813E+07 0.00101054
1.42969E+07 0.00101095
1.43125E+07 0.00101136
1.43281E+07 0.00101177
1.43438E+07 0.00101217
1.43594E+07 0.00101258
1.43750E+07 0.00101299
1.43906E+07 0.00101340
1.44063E+07 0.00101380
1.44219E+07 0.00101421
1.44375E+07 0.00101462
1.44531E+07 0.00101502
1.44688E+07 0.00101543
1.44844E+07 0.00101583
1.45000E+07 0.00101624
1.45156E+07 0.00101664
1.45313E+07 0.00101705
1.45469E+07 0.00101745
1.45625E+07 0.00101785
1.45781E+07 0.00101826
1.45938E+07 0.00101866
1.46094E+07 0.00101906
1.46250E+07 0.00101947
1.46406E+07 0.00101987
1.46563E+07 0.00102027
1.46719E+07 0.00102067
1.46875E+07 0.00102107
1.47031E+07 0.00102148
1.47188E+07 0.00102188
1.47344E+07 0.00102228
1.47500E+07 0.00102268
1.47656E+07 0.00102308
1.47813E+07 0.00102348
1.47969E+07 0.00102388
1.48125E+07 0.00102428
1.48281E+07 0.00102468
1.48438E+07 0.00102508
1.48594E+07 0.00102547
1.48750E+07 0.00102587
1.48906E+07 0.00102627
1.49063E+07 0.00102667
1.49219E+07 0.00102707
1.49375E+07 0.00102746
1.49531E+07 0.00102786
1.49688E+07 0.00102826
1.49844E+07 0.00102865
1.50000E+07 0.00102905
1.50156E+07 0.00102964
1.50313E+07 0.00103022
1.50469E+07 0.00103081
1.50625E+07 0.00103139
1.50781E+07 0.00103198
1.50938E+07 0.00103256
1.51094E+07 0.00103315
1.51250E+07 0.00103373
1.51406E+07 0.00103432
1.51563E+07 0.00103490
1.51719E+07 0.00103548
1.51875E+07 0.00103607
1.52031E+07 0.00103665
1.52188E+07 0.00103723
1.52344E+07 0.00103782
1.52500E+07 0.00103840
1.52656E+07 0.00103898
1.52813E+07 0.00103956
1.52969E+07 0.00104014
1.53125E+07 0.00104072
1.53281E+07 0.00104130
1.53438E+07 0.00104188
1.53594E+07 0.00104247
1.53750E+07 0.00104305
1.53906E+07 0.00104363
1.54063E+07 0.00104420
1.54219E+07 0.00104478
1.54375E+07 0.00104536
1.54531E+07 0.00104594
1.54688E+07 0.00104652
1.54844E+07 0.00104710
1.55000E+07 0.00104768
1.55156E+07 0.00104825
1.55313E+07 0.00104883
1.55469E+07 0.00104941
1.55625E+07 0.00104998
1.55781E+07 0.00105056
1.55938E+07 0.00105114
1.56094E+07 0.00105171
1.56250E+07 0.00105229
1.56406E+07 0.00105286
1.56563E+07 0.00105344
1.56719E+07 0.00105402
1.56875E+07 0.00105459
1.57031E+07 0.00105516
1.57188E+07 0.00105574
1.57344E+07 0.00105631
1.57500E+07 0.00105689
1.57656E+07 0.00105746
1.57813E+07 0.00105803
1.57969E+07 0.00105861
1.58125E+07 0.00105918
1.58281E+07 0.00105975
1.58438E+07 0.00106032
1.58594E+07 0.00106089
1.58750E+07 0.00106147
1.58906E+07 0.00106204
1.59063E+07 0.00106261
1.59219E+07 0.00106318
1.59375E+07 0.00106375
1.59531E+07 0.00106432
1.59688E+07 0.00106489
1.59844E+07 0.00106546
1.60000E+07 0.00106603
1.60156E+07 0.00106676
1.60313E+07 0.00106749
1.60469E+07 0.00106821
1.60625E+07 0.00106894
1.60781E+07 0.00106967
1.60938E+07 0.00107040
1.61094E+07 0.00107112
1.61250E+07 0.00107185
1.61406E+07 0.00107258
1.61563E+07 0.00107330
1.61719E+07 0.00107403
1.61875E+07 0.00107476
1.62031E+07 0.00107548
1.62188E+07 0.00107621
1.62344E+07 0.00107693
1.62500E+07 0.00107766
1.62656E+07 0.00107838
1.62813E+07 0.00107911
1.62969E+07 0.00107983
1.63125E+07 0.00108056
1.63281E+07 0.00108128
1.63438E+07 0.00108200
1.63594E+07 0.00108273
1.63750E+07 0.00108345
1.63906E+07 0.00108417
1.64063E+07 0.00108490
1.64219E+07 0.00108562
1.64375E+07 0.00108634
1.64531E+07 0.00108706
1.64688E+07 0.00108779
1.64844E+07 0.00108851
1.65000E+07 0.00108923
1.65156E+07 0.00108995
1.65313E+07 0.00109067
1.65469E+07 0.00109139
1.65625E+07 0.00109212
1.65781E+07 0.00109284
1.65938E+07 0.00109356
1.66094E+07 0.00109428
1.66250E+07 0.00109500
1.66406E+07 0.00109572
1.66563E+07 0.00109644
1.66719E+07 0.00109716
1.66875E+07 0.00109788
1.67031E+07 0.00109860
1.67188E+07 0.00109931
1.67344E+07 0.00110003
1.67500E+07 0.00110075
1.67656E+07 0.00110147
1.67813E+07 0.00110219
1.67969E+07 0.00110291
1.68125E+07 0.00110362
1.68281E+07 0.00110434
1.68438E+07 0.00110506
1.68594E+07 0.00110578
1.68750E+07 0.00110649
1.68906E+07 0.00110721
1.69063E+07 0.00110793
1.69219E+07 0.00110864
1.69375E+07 0.00110936
1.69531E+07 0.00111007
1.69688E+07 0.00111079
1.69844E+07 0.00111151
1.70000E+07 0.00111222
1.70169E+07 0.00111314
1.70337E+07 0.00111406
1.70506E+07 0.00111497
1.70674E+07 0.00111589
1.70843E+07 0.00111681
1.71011E+07 0.00111773
1.71180E+07 0.00111864
1.71348E+07 0.00111956
1.71483E+07 0.00112030
1.71618E+07 0.00112103
1.71754E+07 0.00112177
1.71889E+07 0.00112250
1.72024E+07 0.00112324
1.72159E+07 0.00112397
1.72294E+07 0.00112471
1.72430E+07 0.00112544
1.72565E+07 0.00112618
1.72700E+07 0.00112691
1.72835E+07 0.00112765
1.72970E+07 0.00112838
1.73106E+07 0.00112911
1.73241E+07 0.00112985
1.73376E+07 0.00113058
1.73511E+07 0.00113132
1.73646E+07 0.00113205
1.73781E+07 0.00113278
1.73917E+07 0.00113352
1.74052E+07 0.00113425
1.74187E+07 0.00113499
1.74322E+07 0.00113572
1.74457E+07 0.00113645
1.74593E+07 0.00113719
1.74728E+07 0.00113792
1.74863E+07 0.00113865
1.74998E+07 0.00113938
1.75133E+07 0.00114012
1.75269E+07 0.00114085
1.75404E+07 0.00114158
1.75539E+07 0.00114232
1.75674E+07 0.00114305
1.75809E+07 0.00114378
1.75944E+07 0.00114451
1.76080E+07 0.00114525
1.76215E+07 0.00114598
1.76350E+07 0.00114671
1.76485E+07 0.00114744
1.76620E+07 0.00114817
1.76756E+07 0.00114891
1.76891E+07 0.00114964
1.77026E+07 0.00115037
1.77161E+07 0.00115110
1.77296E+07 0.00115183
1.77432E+07 0.00115256
1.77567E+07 0.00115329
1.77702E+07 0.00115403
1.77837E+07 0.00115476
1.77972E+07 0.00115549
1.78107E+07 0.00115622
1.78243E+07 0.00115695
1.78378E+07 0.00115768
1.78513E+07 0.00115841
1.78648E+07 0.00115914
1.78783E+07 0.00115987
1.78919E+07 0.00116060
1.79054E+07 0.00116133
1.79189E+07 0.00116206
1.79324E+07 0.00116279
1.79459E+07 0.00116352
1.79595E+07 0.00116425
1.79730E+07 0.00116498
1.79865E+07 0.00116571
1.80000E+07 0.00116644
1.80121E+07 0.00116718
1.80275E+07 0.00116813
1.80430E+07 0.00116908
1.80584E+07 0.00117003
1.80739E+07 0.00117098
1.80893E+07 0.00117193
1.81047E+07 0.00117288
1.81202E+07 0.00117383
1.81356E+07 0.00117478
1.81510E+07 0.00117573
1.81665E+07 0.00117668
1.81819E+07 0.00117763
1.81973E+07 0.00117858
1.82128E+07 0.00117953
1.82282E+07 0.00118047
1.82437E+07 0.00118142
1.82591E+07 0.00118237
1.82745E+07 0.00118332
1.82900E+07 0.00118427
1.83054E+07 0.00118522
1.83208E+07 0.00118617
1.83363E+07 0.00118712
1.83517E+07 0.00118806
1.83671E+07 0.00118901
1.83826E+07 0.00118996
1.83980E+07 0.00119091
1.84134E+07 0.00119186
1.84289E+07 0.00119281
1.84443E+07 0.00119376
1.84598E+07 0.00119470
1.84752E+07 0.00119565
1.84906E+07 0.00119660
1.85061E+07 0.00119755
1.85215E+07 0.00119850
1.85369E+07 0.00119945
1.85524E+07 0.00120039
1.85678E+07 0.00120134
1.85832E+07 0.00120229
1.85987E+07 0.00120324
1.86141E+07 0.00120419
1.86295E+07 0.00120513
1.86450E+07 0.00120608
1.86604E+07 0.00120703
1.86759E+07 0.00120798
1.86913E+07 0.00120892
1.87067E+07 0.00120987
1.87222E+07 0.00121082
1.87376E+07 0.00121177
1.87530E+07 0.00121271
1.87685E+07 0.00121366
1.87839E+07 0.00121461
1.87994E+07 0.00121556
1.88148E+07 0.00121651
1.88302E+07 0.00121745
1.88457E+07 0.00121840
1.88611E+07 0.00121935
1.88765E+07 0.00122029
1.88920E+07 0.00122124
1.89074E+07 0.00122219
1.89228E+07 0.00122314
1.89383E+07 0.00122408
1.89537E+07 0.00122503
1.89691E+07 0.00122598
1.89846E+07 0.00122692
1.90000E+07 0.00122787
1.90156E+07 0.00122893
1.90313E+07 0.00122999
1.90469E+07 0.00123106
1.90625E+07 0.00123212
1.90781E+07 0.00123318
1.90938E+07 0.00123424
1.91094E+07 0.00123530
1.91250E+07 0.00123637
1.91406E+07 0.00123743
1.91563E+07 0.00123849
1.91719E+07 0.00123955
1.91875E+07 0.00124062
1.92031E+07 0.00124168
1.92188E+07 0.00124274
1.92344E+07 0.00124380
1.92500E+07 0.00124487
1.92656E+07 0.00124593
1.92813E+07 0.00124699
1.92969E+07 0.00124805
1.93125E+07 0.00124912
1.93281E+07 0.00125018
1.93438E+07 0.00125124
1.93594E+07 0.00125231
1.93750E+07 0.00125337
1.93906E+07 0.00125443
1.94063E+07 0.00125549
1.94219E+07 0.00125656
1.94375E+07 0.00125762
1.94531E+07 0.00125868
1.94688E+07 0.00125975
1.94844E+07 0.00126081
1.95000E+07 0.00126187
1.95156E+07 0.00126294
1.95313E+07 0.00126400
1.95469E+07 0.00126506
1.95625E+07 0.00126613
1.95781E+07 0.00126719
1.95938E+07 0.00126825
1.96094E+07 0.00126932
1.96250E+07 0.00127038
1.96406E+07 0.00127144
1.96563E+07 0.00127251
1.96719E+07 0.00127357
1.96875E+07 0.00127464
1.97031E+07 0.00127570
1.97188E+07 0.00127676
1.97344E+07 0.00127783
1.97500E+07 0.00127889
1.97656E+07 0.00127996
1.97813E+07 0.00128102
1.97969E+07 0.00128208
1.98125E+07 0.00128315
1.98281E+07 0.00128421
1.98438E+07 0.00128528
1.98594E+07 0.00128634
1.98750E+07 0.00128740
1.98906E+07 0.00128847
1.99063E+07 0.00128953
1.99219E+07 0.00129060
1.99375E+07 0.00129166
1.99531E+07 0.00129273
1.99688E+07 0.00129379
1.99844E+07 0.00129486
2.00000E+07 0.00129592
