Te-120(n,g) ENDFB-8.0
Energy(eV) XS(b)
1.00000E-05 117.709
1.03125E-05 115.912
1.06250E-05 114.194
1.09375E-05 112.551
1.12500E-05 110.977
1.15625E-05 109.467
1.18750E-05 108.017
1.21875E-05 106.623
1.25000E-05 105.282
1.28125E-05 103.990
1.31250E-05 102.745
1.34375E-05 101.543
1.37500E-05 100.382
1.43750E-05 98.1758
1.50000E-05 96.1087
1.56250E-05 94.1669
1.62500E-05 92.3383
1.68750E-05 90.6122
1.75000E-05 88.9794
1.81250E-05 87.4318
1.87500E-05 85.9622
1.93750E-05 84.5644
2.00000E-05 83.2326
2.09375E-05 81.3478
2.18750E-05 79.5856
2.28125E-05 77.9331
2.37500E-05 76.3795
2.46875E-05 74.9152
2.56250E-05 73.5320
2.65625E-05 72.2227
2.75000E-05 70.9810
2.84375E-05 69.8012
2.93750E-05 68.6783
3.03125E-05 67.6079
3.12500E-05 66.5861
3.21875E-05 65.6092
3.31250E-05 64.6741
3.40625E-05 63.7779
3.50000E-05 62.9179
3.59375E-05 62.0918
3.68750E-05 61.2974
3.78125E-05 60.5328
3.87500E-05 59.7961
3.96875E-05 59.0856
4.06250E-05 58.3998
4.25000E-05 57.0971
4.43750E-05 55.8778
4.62500E-05 54.7334
4.81250E-05 53.6566
5.00000E-05 52.6409
5.15625E-05 51.8372
5.31250E-05 51.0692
5.46875E-05 50.3343
5.62500E-05 49.6303
5.78125E-05 48.9550
5.93750E-05 48.3066
6.09375E-05 47.6833
6.25000E-05 47.0835
6.40625E-05 46.5057
6.56250E-05 45.9487
6.71875E-05 45.4113
6.87500E-05 44.8923
7.18750E-05 43.9055
7.50000E-05 42.9811
7.81250E-05 42.1127
8.12500E-05 41.2949
8.43750E-05 40.5230
8.75000E-05 39.7928
9.06250E-05 39.1007
9.37500E-05 38.4435
9.68750E-05 37.8183
0.000100000 37.2227
0.000103125 36.6544
0.000106250 36.1114
0.000109375 35.5917
0.000112500 35.0939
0.000115625 34.6164
0.000118750 34.1579
0.000121875 33.7172
0.000125000 33.2930
0.000128125 32.8845
0.000131250 32.4907
0.000134375 32.1106
0.000137500 31.7436
0.000143750 31.0459
0.000150000 30.3922
0.000156250 29.7782
0.000162500 29.1999
0.000168750 28.6541
0.000175000 28.1377
0.000181250 27.6483
0.000187500 27.1836
0.000193750 26.7416
0.000200000 26.3204
0.000209375 25.7244
0.000218750 25.1672
0.000228125 24.6446
0.000237500 24.1533
0.000246875 23.6902
0.000256250 23.2528
0.000265625 22.8388
0.000275000 22.4461
0.000284375 22.0730
0.000293750 21.7180
0.000303125 21.3795
0.000312500 21.0563
0.000321875 20.7474
0.000331250 20.4517
0.000340625 20.1683
0.000350000 19.8964
0.000359375 19.6351
0.000368750 19.3839
0.000378125 19.1421
0.000387500 18.9092
0.000396875 18.6845
0.000406250 18.4676
0.000425000 18.0557
0.000443750 17.6701
0.000462500 17.3082
0.000481250 16.9677
0.000500000 16.6465
0.000515625 16.3923
0.000531250 16.1495
0.000546875 15.9171
0.000562500 15.6945
0.000578125 15.4809
0.000593750 15.2759
0.000609375 15.0788
0.000625000 14.8891
0.000640625 14.7064
0.000656250 14.5303
0.000671875 14.3603
0.000687500 14.1962
0.000718750 13.8842
0.000750000 13.5918
0.000781250 13.3172
0.000812500 13.0586
0.000843750 12.8145
0.000875000 12.5836
0.000906250 12.3647
0.000937500 12.1569
0.000968750 11.9592
0.00100000 11.7709
0.00103125 11.5912
0.00106250 11.4195
0.00109375 11.2551
0.00112500 11.0977
0.00115625 10.9467
0.00118750 10.8017
0.00121875 10.6623
0.00125000 10.5282
0.00128125 10.3990
0.00131250 10.2745
0.00134375 10.1543
0.00137500 10.0383
0.00143750 9.81763
0.00150000 9.61092
0.00156250 9.41674
0.00162500 9.23387
0.00168750 9.06126
0.00175000 8.89798
0.00181250 8.74322
0.00187500 8.59627
0.00193750 8.45648
0.00200000 8.32330
0.00209375 8.13482
0.00218750 7.95859
0.00228125 7.79334
0.00237500 7.63797
0.00246875 7.49154
0.00256250 7.35322
0.00265625 7.22228
0.00275000 7.09811
0.00284375 6.98012
0.00293750 6.86783
0.00303125 6.76079
0.00312500 6.65860
0.00321875 6.56091
0.00331250 6.46740
0.00340625 6.37778
0.00350000 6.29178
0.00359375 6.20917
0.00368750 6.12973
0.00378125 6.05326
0.00387500 5.97959
0.00396875 5.90854
0.00406250 5.83997
0.00425000 5.70969
0.00443750 5.58776
0.00462500 5.47332
0.00481250 5.36564
0.00500000 5.26407
0.00515625 5.18370
0.00531250 5.10690
0.00546875 5.03342
0.00562500 4.96302
0.00578125 4.89549
0.00593750 4.83065
0.00609375 4.76832
0.00625000 4.70834
0.00640625 4.65057
0.00656250 4.59487
0.00671875 4.54113
0.00687500 4.48923
0.00718750 4.39055
0.00750000 4.29811
0.00781250 4.21127
0.00812500 4.12949
0.00843750 4.05229
0.00875000 3.97927
0.00906250 3.91005
0.00937500 3.84433
0.00968750 3.78181
0.0100000 3.72224
0.0103125 3.66541
0.0106250 3.61110
0.0109375 3.55914
0.0112500 3.50936
0.0115625 3.46161
0.0118750 3.41576
0.0121875 3.37169
0.0125000 3.32928
0.0128125 3.28843
0.0131250 3.24906
0.0134375 3.21106
0.0137500 3.17437
0.0143750 3.10460
0.0150000 3.03924
0.0156250 2.97784
0.0162500 2.92001
0.0168750 2.86542
0.0175000 2.81378
0.0181250 2.76484
0.0187500 2.71836
0.0193750 2.67415
0.0200000 2.63202
0.0206625 2.58948
0.0213250 2.54893
0.0219875 2.51023
0.0226500 2.47324
0.0233125 2.43784
0.0239750 2.40392
0.0246375 2.37138
0.0253000 2.34012
0.0264578 2.28835
0.0276156 2.23986
0.0287734 2.19434
0.0299313 2.15149
0.0310891 2.11107
0.0322469 2.07284
0.0334047 2.03661
0.0345625 2.00222
0.0355274 1.97485
0.0364922 1.94857
0.0374570 1.92332
0.0384219 1.89901
0.0393867 1.87561
0.0403516 1.85304
0.0413164 1.83127
0.0422813 1.81025
0.0442109 1.77029
0.0461406 1.73287
0.0480703 1.69772
0.0500000 1.66463
0.0515625 1.63921
0.0531250 1.61492
0.0546875 1.59168
0.0562500 1.56941
0.0578125 1.54805
0.0593750 1.52755
0.0609375 1.50784
0.0625000 1.48888
0.0640625 1.47061
0.0656250 1.45301
0.0671875 1.43603
0.0687500 1.41962
0.0718750 1.38844
0.0750000 1.35921
0.0781250 1.33175
0.0812500 1.30588
0.0843750 1.28147
0.0875000 1.25837
0.0906250 1.23647
0.0937500 1.21569
0.0968750 1.19591
0.100000 1.17707
0.103125 1.15910
0.106250 1.14192
0.109375 1.12549
0.112500 1.10974
0.115625 1.09464
0.118750 1.08014
0.121875 1.06620
0.125000 1.05279
0.128125 1.03987
0.131250 1.02743
0.134375 1.01542
0.137500 1.00383
0.143750 0.981782
0.150000 0.961116
0.156250 0.941694
0.162500 0.923400
0.168750 0.906133
0.175000 0.889800
0.181250 0.874320
0.187500 0.859625
0.193750 0.845652
0.200000 0.832346
0.209375 0.813511
0.218750 0.795888
0.228125 0.779356
0.237500 0.763813
0.246875 0.749165
0.256250 0.735328
0.265625 0.722231
0.275000 0.709810
0.284375 0.698008
0.293750 0.686776
0.303125 0.676070
0.312500 0.665850
0.321875 0.656079
0.331250 0.646726
0.340625 0.637762
0.350000 0.629161
0.359375 0.620899
0.368750 0.612955
0.378125 0.605308
0.387500 0.597943
0.396875 0.590846
0.406250 0.584003
0.425000 0.570995
0.443750 0.558799
0.462500 0.547351
0.500000 0.526455
0.531250 0.510764
0.562500 0.496363
0.593750 0.483114
0.625000 0.470874
0.687500 0.448948
0.750000 0.429827
0.812500 0.412957
0.875000 0.397970
0.937500 0.384506
1.00000 0.372285
1.06250 0.361161
1.12500 0.350978
1.18750 0.341611
1.25000 0.332956
1.37500 0.317453
1.50000 0.303933
1.62500 0.292005
1.75000 0.281401
1.87500 0.271876
2.00000 0.263228
2.18750 0.251680
2.37500 0.241538
2.56250 0.232530
2.75000 0.224474
2.93750 0.217203
3.12500 0.210582
3.31250 0.204532
3.50000 0.198976
3.87500 0.189099
4.25000 0.180561
4.62500 0.173084
5.00000 0.166471
5.31250 0.161504
5.62500 0.156952
5.93750 0.152764
6.25000 0.148895
6.87500 0.141964
7.50000 0.135919
8.12500 0.130585
8.75000 0.125838
9.37500 0.121575
10.0000 0.117713
10.6250 0.114197
11.2500 0.110979
11.8750 0.108018
12.5000 0.105282
13.7500 0.100382
15.0000 0.0961072
16.2500 0.0923362
17.5000 0.0889791
18.7500 0.0859636
20.0000 0.0832324
21.8750 0.0795838
23.7500 0.0763773
25.6250 0.0735296
27.5000 0.0709797
29.3750 0.0686781
31.2500 0.0665854
33.1250 0.0646732
35.0000 0.0629167
38.7500 0.0597944
42.5000 0.0570952
46.2500 0.0547314
50.0000 0.0526389
54.5000 0.0504189
59.0000 0.0484578
63.5000 0.0467097
65.7500 0.0459219
66.8750 0.0455289
67.1563 0.0454376
67.2266 0.0454588
67.2969 0.0457189
67.3320 0.0461722
67.3672 0.0471918
67.3848 0.0480833
67.4024 0.0493735
67.4199 0.0512196
67.4375 0.0538304
67.4551 0.0574871
67.4727 0.0625513
67.4902 0.0694899
67.5078 0.0788962
67.5166 0.0847503
67.5254 0.0915128
67.5342 0.0993042
67.5430 0.108257
67.5518 0.118518
67.5606 0.130246
67.5694 0.143616
67.5781 0.158799
67.5869 0.176036
67.5957 0.195530
67.6045 0.217521
67.6133 0.242261
67.6221 0.270023
67.6309 0.301092
67.6397 0.335771
67.6484 0.374332
67.6572 0.417194
67.6660 0.464660
67.6748 0.517087
67.6836 0.574840
67.6924 0.638294
67.6968 0.672317
67.7012 0.707828
67.7056 0.745038
67.7100 0.783825
67.7144 0.824319
67.7188 0.866568
67.7232 0.910722
67.7275 0.956626
67.7363 1.05428
67.7451 1.15990
67.7539 1.27382
67.7627 1.39639
67.7715 1.52790
67.7803 1.66865
67.7891 1.81871
67.7979 1.97863
67.8066 2.14845
67.8154 2.32829
67.8242 2.51824
67.8330 2.71836
67.8418 2.92862
67.8506 3.14898
67.8594 3.37903
67.8682 3.61913
67.8770 3.86877
67.8857 4.12766
67.8945 4.39545
67.9121 4.95594
67.9297 5.54585
67.9473 6.16098
67.9648 6.79537
68.0000 8.09629
68.0000 16.1390
72.0000 15.4607
75.2500 14.9567
78.5000 14.4894
81.7500 14.0548
85.0000 13.6494
88.7500 13.2152
92.5000 12.8119
100.000 12.0853
106.250 11.5176
112.500 11.0069
118.750 10.5445
125.000 10.1239
131.250 9.73645
137.500 9.38083
143.750 9.05316
150.000 8.75017
160.000 8.30762
170.000 7.91231
177.500 7.64111
185.000 7.38987
192.500 7.15639
200.000 6.93880
212.500 6.60647
225.000 6.30774
237.500 6.03760
250.000 5.79203
262.500 5.56694
275.000 5.36048
287.500 5.17035
300.000 4.99464
312.500 4.83174
325.000 4.68022
337.500 4.53892
350.000 4.40679
375.000 4.16664
400.000 3.95385
425.000 3.76457
450.000 3.59442
475.000 3.44055
500.000 3.30067
525.000 3.17366
550.000 3.05710
575.000 2.94973
600.000 2.85047
630.000 2.74181
660.000 2.64207
690.000 2.55016
720.000 2.46516
760.000 2.36222
800.000 2.26855
850.000 2.16423
900.000 2.07028
950.000 1.98517
1000.00 1.90766
1062.50 1.82225
1125.00 1.74523
1187.50 1.67538
1250.00 1.61170
1312.50 1.55524
1375.00 1.50325
1437.50 1.45520
1500.00 1.41063
1600.00 1.34751
1700.00 1.29079
1775.00 1.25315
1850.00 1.21810
2000.00 1.15471
2125.00 1.10995
2250.00 1.06933
2375.00 1.03228
2500.00 0.998317
2625.00 0.968959
2750.00 0.941771
3000.00 0.892950
3250.00 0.852397
3500.00 0.816494
3750.00 0.785990
4000.00 0.758487
4250.00 0.734852
4500.00 0.713243
4750.00 0.693388
5000.00 0.675063
5500.00 0.644442
6000.00 0.617701
6500.00 0.594846
7000.00 0.574440
7500.00 0.557200
8000.00 0.541542
8500.00 0.526588
9000.00 0.512867
10000.0 0.488506
10625.0 0.475431
11250.0 0.463425
12500.0 0.442083
13750.0 0.423071
15000.0 0.406429
16000.0 0.394516
17000.0 0.383644
18500.0 0.368520
20000.0 0.355105
21250.0 0.344564
22500.0 0.334913
23750.0 0.326032
25000.0 0.317825
27500.0 0.302849
30000.0 0.289794
32500.0 0.278134
35000.0 0.267756
37500.0 0.258362
40000.0 0.249872
42500.0 0.242258
45000.0 0.235292
47500.0 0.228887
50000.0 0.222972
55000.0 0.212784
60000.0 0.203890
65000.0 0.196624
70000.0 0.190129
75000.0 0.184607
80000.0 0.179588
90000.0 0.172474
99999.9 0.166350
100000 0.165810
112500 0.160931
125000 0.156689
137500 0.152948
150000 0.149610
175000 0.146292
200000 0.143477
202220 0.143350
226110 0.142066
250000 0.140921
275000 0.140650
300000 0.140403
302325 0.140501
302325 0.140501
311982 0.140903
321948 0.141306
342845 0.142114
365098 0.142928
388796 0.143746
414851 0.144594
440906 0.145396
470453 0.146254
500000 0.147065
507770 0.147588
515539 0.148106
523550 0.148633
531561 0.149154
539821 0.149685
548081 0.150209
556598 0.150744
565114 0.151272
567222 0.150253
569329 0.149245
573544 0.147260
577760 0.145315
581975 0.143410
590405 0.139715
598836 0.136165
607266 0.132753
615696 0.129471
624127 0.126314
632557 0.123275
640987 0.120347
649418 0.117526
657848 0.114807
666279 0.112183
674709 0.109652
683139 0.107208
691570 0.104847
700000 0.102566
706250 0.102431
712500 0.102297
718750 0.102164
725000 0.102033
731250 0.101903
737500 0.101775
743750 0.101647
750000 0.101521
756250 0.101396
762500 0.101272
768750 0.101150
775000 0.101028
781250 0.100908
787500 0.100788
793750 0.100670
800000 0.100553
806250 0.100644
812500 0.100734
818750 0.100824
825000 0.100913
831250 0.101001
837500 0.101089
843750 0.101176
850000 0.101263
856250 0.101349
862500 0.101434
868750 0.101519
875000 0.101604
881250 0.101687
887500 0.101771
893750 0.101854
900000 0.101936
906250 0.102146
912500 0.102354
918750 0.102562
925000 0.102768
931250 0.102974
937500 0.103179
943750 0.103382
950000 0.103585
956250 0.103787
962500 0.103988
968750 0.104188
975000 0.104387
981250 0.104585
987500 0.104782
993750 0.104979
1.00000E+06 0.105174
1.00702E+06 0.105509
1.01405E+06 0.105842
1.02107E+06 0.106175
1.02810E+06 0.106506
1.03512E+06 0.106835
1.04214E+06 0.107164
1.04917E+06 0.107491
1.05619E+06 0.107817
1.06321E+06 0.108142
1.07024E+06 0.108466
1.07726E+06 0.108789
1.08429E+06 0.109110
1.09131E+06 0.109431
1.09833E+06 0.109750
1.10536E+06 0.110068
1.11238E+06 0.110385
1.11238E+06 0.110385
1.11606E+06 0.110467
1.11974E+06 0.110548
1.12710E+06 0.110710
1.13446E+06 0.110872
1.14183E+06 0.111032
1.14919E+06 0.111192
1.15655E+06 0.111351
1.16391E+06 0.111510
1.17127E+06 0.111667
1.17127E+06 0.111667
1.17381E+06 0.111314
1.17634E+06 0.110963
1.18141E+06 0.110268
1.18647E+06 0.109579
1.19154E+06 0.108898
1.19661E+06 0.108223
1.20168E+06 0.107556
1.20674E+06 0.106896
1.21181E+06 0.106242
1.21658E+06 0.105214
1.22136E+06 0.104199
1.23091E+06 0.102212
1.24045E+06 0.100277
1.25000E+06 0.0983928
1.25781E+06 0.0982124
1.26563E+06 0.0980334
1.27344E+06 0.0978559
1.28125E+06 0.0976798
1.28906E+06 0.0975050
1.29688E+06 0.0973316
1.30469E+06 0.0971596
1.31250E+06 0.0969889
1.32031E+06 0.0968195
1.32813E+06 0.0966514
1.33594E+06 0.0964845
1.34375E+06 0.0963190
1.35156E+06 0.0961546
1.35938E+06 0.0959915
1.36719E+06 0.0958296
1.37500E+06 0.0956689
1.38281E+06 0.0955094
1.39063E+06 0.0953510
1.39844E+06 0.0951938
1.40625E+06 0.0950377
1.41406E+06 0.0948828
1.42188E+06 0.0947289
1.42969E+06 0.0945761
1.43750E+06 0.0944244
1.44531E+06 0.0942738
1.45313E+06 0.0941242
1.46094E+06 0.0939757
1.46875E+06 0.0938282
1.47656E+06 0.0936817
1.48438E+06 0.0935362
1.49219E+06 0.0933916
1.50000E+06 0.0932481
1.50781E+06 0.0934501
1.51563E+06 0.0936514
1.52344E+06 0.0938521
1.53125E+06 0.0940522
1.53906E+06 0.0942518
1.54688E+06 0.0944507
1.55469E+06 0.0946491
1.56250E+06 0.0948469
1.57031E+06 0.0950441
1.57813E+06 0.0952407
1.58594E+06 0.0954368
1.59375E+06 0.0956323
1.60156E+06 0.0958272
1.60938E+06 0.0960216
1.61719E+06 0.0962154
1.62500E+06 0.0964087
1.63281E+06 0.0966015
1.64063E+06 0.0967937
1.64844E+06 0.0969854
1.65625E+06 0.0971765
1.66406E+06 0.0973671
1.67188E+06 0.0975572
1.67969E+06 0.0977468
1.68750E+06 0.0979359
1.69531E+06 0.0981245
1.70313E+06 0.0983125
1.71094E+06 0.0985001
1.71875E+06 0.0986871
1.72656E+06 0.0988737
1.73438E+06 0.0990597
1.74219E+06 0.0992453
1.75000E+06 0.0994304
1.75514E+06 0.0996171
1.76029E+06 0.0998035
1.76543E+06 0.0999897
1.77057E+06 0.100176
1.77571E+06 0.100362
1.78086E+06 0.100547
1.78600E+06 0.100733
1.79114E+06 0.100918
1.79114E+06 0.100918
1.79664E+06 0.101139
1.80215E+06 0.101360
1.80765E+06 0.101580
1.81315E+06 0.101800
1.81865E+06 0.102020
1.82416E+06 0.102240
1.82966E+06 0.102460
1.83516E+06 0.102680
1.84066E+06 0.102899
1.84617E+06 0.103118
1.85167E+06 0.103337
1.85717E+06 0.103556
1.86267E+06 0.103774
1.86818E+06 0.103993
1.87368E+06 0.104211
1.87918E+06 0.104429
1.88296E+06 0.104477
1.88673E+06 0.104525
1.89428E+06 0.104621
1.90183E+06 0.104717
1.90939E+06 0.104812
1.91694E+06 0.104907
1.92449E+06 0.105002
1.93204E+06 0.105096
1.93959E+06 0.105190
1.94714E+06 0.105284
1.95469E+06 0.105377
1.96224E+06 0.105471
1.96980E+06 0.105564
1.97735E+06 0.105656
1.98490E+06 0.105749
1.99245E+06 0.105841
2.00000E+06 0.105933
2.00631E+06 0.106139
2.01262E+06 0.106345
2.01893E+06 0.106551
2.02523E+06 0.106756
2.03154E+06 0.106961
2.03785E+06 0.107166
2.04416E+06 0.107371
2.05047E+06 0.107575
2.05677E+06 0.107779
2.06308E+06 0.107983
2.06939E+06 0.108187
2.07570E+06 0.108391
2.08201E+06 0.108594
2.08831E+06 0.108797
2.09462E+06 0.109000
2.10093E+06 0.109202
2.10726E+06 0.109137
2.11359E+06 0.109072
2.11991E+06 0.109007
2.12624E+06 0.108942
2.13211E+06 0.108911
2.13799E+06 0.108881
2.14386E+06 0.108850
2.14974E+06 0.108820
2.15561E+06 0.108789
2.16148E+06 0.108759
2.16736E+06 0.108729
2.17323E+06 0.108699
2.17910E+06 0.108669
2.18498E+06 0.108639
2.19085E+06 0.108609
2.19673E+06 0.108579
2.20260E+06 0.108550
2.20847E+06 0.108520
2.21435E+06 0.108490
2.22022E+06 0.108461
2.22022E+06 0.108461
2.22631E+06 0.108384
2.23241E+06 0.108307
2.23850E+06 0.108231
2.24459E+06 0.108155
2.25068E+06 0.108079
2.25677E+06 0.108003
2.26287E+06 0.107928
2.26896E+06 0.107852
2.27505E+06 0.107777
2.28114E+06 0.107703
2.28723E+06 0.107628
2.29333E+06 0.107554
2.29942E+06 0.107480
2.30551E+06 0.107407
2.31160E+06 0.107333
2.31769E+06 0.107260
2.32379E+06 0.107187
2.32988E+06 0.107114
2.33597E+06 0.107042
2.34206E+06 0.106970
2.34815E+06 0.106898
2.35425E+06 0.106826
2.36034E+06 0.106754
2.36643E+06 0.106683
2.37252E+06 0.106612
2.37861E+06 0.106541
2.38471E+06 0.106470
2.39080E+06 0.106400
2.39689E+06 0.106330
2.40298E+06 0.106260
2.40907E+06 0.106190
2.41517E+06 0.106121
2.42126E+06 0.106052
2.42735E+06 0.105982
2.43344E+06 0.105914
2.43953E+06 0.105845
2.44563E+06 0.105777
2.45172E+06 0.105708
2.45781E+06 0.105640
2.46390E+06 0.105573
2.46999E+06 0.105505
2.47609E+06 0.105438
2.48218E+06 0.105371
2.48827E+06 0.105304
2.49436E+06 0.105237
2.50045E+06 0.105171
2.50655E+06 0.105104
2.51264E+06 0.105038
2.51873E+06 0.104972
2.52482E+06 0.104906
2.53091E+06 0.104841
2.53701E+06 0.104776
2.54310E+06 0.104711
2.54919E+06 0.104646
2.55528E+06 0.104581
2.56137E+06 0.104516
2.56747E+06 0.104452
2.57356E+06 0.104388
2.57965E+06 0.104324
2.58574E+06 0.104260
2.59183E+06 0.104197
2.59793E+06 0.104133
2.60402E+06 0.104070
2.61011E+06 0.104007
2.61620E+06 0.103944
2.62230E+06 0.103882
2.62839E+06 0.103819
2.63448E+06 0.103757
2.64057E+06 0.103695
2.64666E+06 0.103633
2.65276E+06 0.103571
2.65885E+06 0.103510
2.66494E+06 0.103448
2.67103E+06 0.103387
2.67712E+06 0.103326
2.68322E+06 0.103265
2.68931E+06 0.103204
2.69540E+06 0.103144
2.70149E+06 0.103084
2.70758E+06 0.103023
2.71368E+06 0.102963
2.71977E+06 0.102904
2.72586E+06 0.102844
2.73195E+06 0.102784
2.73804E+06 0.102725
2.74414E+06 0.102666
2.75023E+06 0.102607
2.75632E+06 0.102548
2.76241E+06 0.102489
2.76850E+06 0.102431
2.77460E+06 0.102373
2.78069E+06 0.102314
2.78678E+06 0.102256
2.79287E+06 0.102199
2.79896E+06 0.102141
2.80506E+06 0.102083
2.81115E+06 0.102026
2.81724E+06 0.101969
2.82333E+06 0.101912
2.82942E+06 0.101855
2.83552E+06 0.101798
2.84161E+06 0.101741
2.84770E+06 0.101685
2.85379E+06 0.101629
2.85988E+06 0.101572
2.86598E+06 0.101516
2.87207E+06 0.101461
2.87816E+06 0.101405
2.88425E+06 0.101349
2.89034E+06 0.101294
2.89644E+06 0.101239
2.90253E+06 0.101184
2.90862E+06 0.101129
2.91471E+06 0.101074
2.92080E+06 0.101019
2.92690E+06 0.100965
2.93299E+06 0.100910
2.93908E+06 0.100856
2.94517E+06 0.100802
2.95126E+06 0.100748
2.95736E+06 0.100694
2.96345E+06 0.100640
2.96954E+06 0.100587
2.97563E+06 0.100533
2.98172E+06 0.100480
2.98782E+06 0.100427
2.99391E+06 0.100374
3.00000E+06 0.100321
3.00781E+06 0.0999332
3.01563E+06 0.0995480
3.02344E+06 0.0991652
3.03125E+06 0.0987849
3.03906E+06 0.0984070
3.04688E+06 0.0980315
3.05469E+06 0.0976584
3.06250E+06 0.0972877
3.07031E+06 0.0969193
3.07813E+06 0.0965532
3.08594E+06 0.0961894
3.09375E+06 0.0958280
3.10156E+06 0.0954688
3.10938E+06 0.0951118
3.11719E+06 0.0947571
3.12500E+06 0.0944046
3.13281E+06 0.0940542
3.14063E+06 0.0937061
3.14844E+06 0.0933600
3.15625E+06 0.0930162
3.16406E+06 0.0926743
3.17188E+06 0.0923347
3.17969E+06 0.0919971
3.18750E+06 0.0916615
3.19531E+06 0.0913280
3.20313E+06 0.0909965
3.21094E+06 0.0906670
3.21875E+06 0.0903396
3.22656E+06 0.0900140
3.23438E+06 0.0896905
3.24219E+06 0.0893688
3.25000E+06 0.0890491
3.25781E+06 0.0887313
3.26563E+06 0.0884154
3.27344E+06 0.0881014
3.28125E+06 0.0877893
3.28906E+06 0.0874789
3.29688E+06 0.0871704
3.30469E+06 0.0868637
3.31250E+06 0.0865589
3.32031E+06 0.0862558
3.32813E+06 0.0859545
3.33594E+06 0.0856549
3.34375E+06 0.0853571
3.35156E+06 0.0850609
3.35938E+06 0.0847666
3.36719E+06 0.0844739
3.37500E+06 0.0841829
3.38281E+06 0.0838935
3.39063E+06 0.0836059
3.39844E+06 0.0833198
3.40625E+06 0.0830355
3.41406E+06 0.0827527
3.42188E+06 0.0824715
3.42969E+06 0.0821919
3.43750E+06 0.0819139
3.44531E+06 0.0816375
3.45313E+06 0.0813626
3.46094E+06 0.0810893
3.46875E+06 0.0808175
3.47656E+06 0.0805472
3.48438E+06 0.0802784
3.49219E+06 0.0800112
3.50000E+06 0.0797454
3.50781E+06 0.0794810
3.51563E+06 0.0792182
3.52344E+06 0.0789568
3.53125E+06 0.0786968
3.53906E+06 0.0784383
3.54688E+06 0.0781812
3.55469E+06 0.0779254
3.56250E+06 0.0776711
3.57031E+06 0.0774182
3.57813E+06 0.0771666
3.58594E+06 0.0769164
3.59375E+06 0.0766676
3.60156E+06 0.0764200
3.60938E+06 0.0761739
3.61719E+06 0.0759290
3.62500E+06 0.0756855
3.63281E+06 0.0754432
3.64063E+06 0.0752023
3.64844E+06 0.0749626
3.65625E+06 0.0747243
3.66406E+06 0.0744871
3.67188E+06 0.0742513
3.67969E+06 0.0740166
3.68750E+06 0.0737833
3.69531E+06 0.0735511
3.70313E+06 0.0733202
3.71094E+06 0.0730904
3.71875E+06 0.0728619
3.72656E+06 0.0726346
3.73438E+06 0.0724085
3.74219E+06 0.0721835
3.75000E+06 0.0719597
3.75781E+06 0.0717370
3.76563E+06 0.0715155
3.77344E+06 0.0712951
3.78125E+06 0.0710759
3.78906E+06 0.0708578
3.79688E+06 0.0706408
3.80469E+06 0.0704249
3.81250E+06 0.0702102
3.82031E+06 0.0699965
3.82813E+06 0.0697839
3.83594E+06 0.0695723
3.84375E+06 0.0693619
3.85156E+06 0.0691525
3.85938E+06 0.0689441
3.86719E+06 0.0687368
3.87500E+06 0.0685306
3.88281E+06 0.0683254
3.89063E+06 0.0681212
3.89844E+06 0.0679180
3.90625E+06 0.0677158
3.91406E+06 0.0675147
3.92188E+06 0.0673145
3.92969E+06 0.0671153
3.93750E+06 0.0669172
3.94531E+06 0.0667199
3.95313E+06 0.0665237
3.96094E+06 0.0663284
3.96875E+06 0.0661341
3.97656E+06 0.0659407
3.98438E+06 0.0657483
3.99219E+06 0.0655568
4.00000E+06 0.0653662
4.01008E+06 0.0649093
4.02016E+06 0.0644567
4.03023E+06 0.0640084
4.04031E+06 0.0635643
4.05039E+06 0.0631244
4.06047E+06 0.0626886
4.07055E+06 0.0622569
4.08062E+06 0.0618292
4.09070E+06 0.0614055
4.10078E+06 0.0609857
4.11086E+06 0.0605698
4.12094E+06 0.0601578
4.13101E+06 0.0597496
4.14109E+06 0.0593451
4.15117E+06 0.0589443
4.16125E+06 0.0585472
4.17133E+06 0.0581538
4.18140E+06 0.0577639
4.19148E+06 0.0573775
4.20156E+06 0.0569947
4.21164E+06 0.0566153
4.22172E+06 0.0562394
4.23179E+06 0.0558668
4.24187E+06 0.0554976
4.25195E+06 0.0551317
4.26203E+06 0.0547690
4.27211E+06 0.0544096
4.28218E+06 0.0540534
4.29226E+06 0.0537003
4.30234E+06 0.0533504
4.31242E+06 0.0530035
4.32250E+06 0.0526598
4.33257E+06 0.0523190
4.34265E+06 0.0519813
4.35273E+06 0.0516465
4.36281E+06 0.0513146
4.37289E+06 0.0509856
4.38296E+06 0.0506594
4.39304E+06 0.0503361
4.40312E+06 0.0500156
4.41320E+06 0.0496978
4.42328E+06 0.0493828
4.43335E+06 0.0490705
4.44343E+06 0.0487609
4.45351E+06 0.0484539
4.46359E+06 0.0481496
4.47367E+06 0.0478478
4.48374E+06 0.0475486
4.49382E+06 0.0472519
4.50390E+06 0.0469578
4.51398E+06 0.0466661
4.52406E+06 0.0463769
4.53413E+06 0.0460901
4.54421E+06 0.0458057
4.55429E+06 0.0455237
4.56437E+06 0.0452440
4.57445E+06 0.0449667
4.58452E+06 0.0446917
4.59460E+06 0.0444190
4.60468E+06 0.0441485
4.61476E+06 0.0438802
4.62484E+06 0.0436142
4.63491E+06 0.0433503
4.64499E+06 0.0430887
4.65439E+06 0.0428465
4.66379E+06 0.0426062
4.67319E+06 0.0423677
4.68259E+06 0.0421311
4.69199E+06 0.0418962
4.70139E+06 0.0416631
4.71079E+06 0.0414318
4.72019E+06 0.0412022
4.72959E+06 0.0409743
4.73899E+06 0.0407482
4.74839E+06 0.0405237
4.75779E+06 0.0403009
4.76719E+06 0.0400798
4.77659E+06 0.0398603
4.78599E+06 0.0396424
4.79539E+06 0.0394262
4.80479E+06 0.0392116
4.81419E+06 0.0389985
4.82359E+06 0.0387870
4.83298E+06 0.0385771
4.84238E+06 0.0383687
4.85178E+06 0.0381618
4.86118E+06 0.0379565
4.87058E+06 0.0377526
4.87998E+06 0.0375503
4.88938E+06 0.0373494
4.89878E+06 0.0371499
4.90818E+06 0.0369519
4.91758E+06 0.0367554
4.92698E+06 0.0365602
4.93638E+06 0.0363665
4.94578E+06 0.0361742
4.95256E+06 0.0360363
4.95934E+06 0.0358992
4.96611E+06 0.0357628
4.97289E+06 0.0356271
4.97967E+06 0.0354921
4.98645E+06 0.0353578
4.99322E+06 0.0352241
5.00000E+06 0.0350912
5.01345E+06 0.0347395
5.02690E+06 0.0343923
5.04034E+06 0.0340495
5.05379E+06 0.0337110
5.06724E+06 0.0333767
5.08069E+06 0.0330467
5.09414E+06 0.0327207
5.10758E+06 0.0323989
5.12103E+06 0.0320810
5.13448E+06 0.0317670
5.14793E+06 0.0314570
5.16137E+06 0.0311508
5.17482E+06 0.0308483
5.18827E+06 0.0305495
5.20172E+06 0.0302544
5.21517E+06 0.0299629
5.22861E+06 0.0296750
5.24206E+06 0.0293905
5.25551E+06 0.0291095
5.26896E+06 0.0288319
5.28241E+06 0.0285576
5.29585E+06 0.0282866
5.30930E+06 0.0280189
5.32275E+06 0.0277544
5.33620E+06 0.0274930
5.34964E+06 0.0272348
5.36309E+06 0.0269796
5.37654E+06 0.0267274
5.38999E+06 0.0264782
5.40344E+06 0.0262319
5.41688E+06 0.0259886
5.43033E+06 0.0257481
5.44463E+06 0.0254953
5.45894E+06 0.0252457
5.47324E+06 0.0249992
5.48755E+06 0.0247558
5.50185E+06 0.0245153
5.51615E+06 0.0242777
5.53046E+06 0.0240431
5.54476E+06 0.0238114
5.55906E+06 0.0235825
5.57337E+06 0.0233563
5.58767E+06 0.0231329
5.60198E+06 0.0229122
5.61628E+06 0.0226941
5.63058E+06 0.0224787
5.64489E+06 0.0222659
5.65919E+06 0.0220556
5.67394E+06 0.0218413
5.68870E+06 0.0216297
5.70345E+06 0.0214206
5.71820E+06 0.0212141
5.73295E+06 0.0210101
5.74771E+06 0.0208087
5.76246E+06 0.0206096
5.77721E+06 0.0204129
5.79227E+06 0.0202146
5.80733E+06 0.0200188
5.82239E+06 0.0198253
5.83745E+06 0.0196342
5.85251E+06 0.0194454
5.86757E+06 0.0192589
5.88263E+06 0.0190747
5.89769E+06 0.0188927
5.92327E+06 0.0185886
5.94885E+06 0.0182906
5.97442E+06 0.0179987
6.00000E+06 0.0177127
6.01502E+06 0.0175122
6.03005E+06 0.0173145
6.04507E+06 0.0171195
6.06009E+06 0.0169272
6.07512E+06 0.0167375
6.09014E+06 0.0165504
6.10516E+06 0.0163658
6.12019E+06 0.0161838
6.13521E+06 0.0160042
6.15023E+06 0.0158270
6.16526E+06 0.0156522
6.18028E+06 0.0154798
6.19530E+06 0.0153097
6.21032E+06 0.0151418
6.22535E+06 0.0149762
6.24037E+06 0.0148128
6.25539E+06 0.0146516
6.27042E+06 0.0144925
6.28544E+06 0.0143355
6.30046E+06 0.0141805
6.31549E+06 0.0140277
6.33051E+06 0.0138768
6.34553E+06 0.0137279
6.36056E+06 0.0135809
6.37558E+06 0.0134358
6.39060E+06 0.0132927
6.40563E+06 0.0131514
6.42065E+06 0.0130119
6.43567E+06 0.0128742
6.45069E+06 0.0127383
6.46572E+06 0.0126041
6.48074E+06 0.0124717
6.49666E+06 0.0123332
6.51257E+06 0.0121966
6.52848E+06 0.0120619
6.54440E+06 0.0119290
6.56031E+06 0.0117978
6.57623E+06 0.0116684
6.59214E+06 0.0115408
6.60806E+06 0.0114148
6.62397E+06 0.0112905
6.63988E+06 0.0111678
6.65580E+06 0.0110468
6.67171E+06 0.0109274
6.68763E+06 0.0108095
6.70354E+06 0.0106932
6.71946E+06 0.0105784
6.73537E+06 0.0104651
6.75191E+06 0.0103489
6.76845E+06 0.0102343
6.78499E+06 0.0101213
6.80153E+06 0.0100097
6.81807E+06 0.00989968
6.83461E+06 0.00979110
6.85115E+06 0.00968398
6.86769E+06 0.00957828
6.88423E+06 0.00947398
6.90076E+06 0.00937107
6.91730E+06 0.00926951
6.93384E+06 0.00916930
6.95038E+06 0.00907040
6.96692E+06 0.00897280
6.98346E+06 0.00887648
7.00000E+06 0.00878142
7.00861E+06 0.00872765
7.01721E+06 0.00867428
7.02581E+06 0.00862130
7.03442E+06 0.00856871
7.04302E+06 0.00851650
7.05163E+06 0.00846467
7.06023E+06 0.00841323
7.06884E+06 0.00836216
7.07744E+06 0.00831145
7.08604E+06 0.00826112
7.09465E+06 0.00821115
7.10325E+06 0.00816154
7.11186E+06 0.00811229
7.12046E+06 0.00806340
7.12907E+06 0.00801487
7.13767E+06 0.00796668
7.14628E+06 0.00791884
7.15488E+06 0.00787135
7.16348E+06 0.00782419
7.17209E+06 0.00777738
7.18069E+06 0.00773089
7.18930E+06 0.00768475
7.19790E+06 0.00763893
7.20651E+06 0.00759345
7.21511E+06 0.00754828
7.22371E+06 0.00750344
7.23232E+06 0.00745891
7.24092E+06 0.00741471
7.24953E+06 0.00737081
7.25813E+06 0.00732723
7.26674E+06 0.00728396
7.27534E+06 0.00724100
7.28087E+06 0.00721355
7.28640E+06 0.00718624
7.29192E+06 0.00715905
7.29745E+06 0.00713198
7.30298E+06 0.00710504
7.30850E+06 0.00707822
7.31403E+06 0.00705151
7.31956E+06 0.00702494
7.32508E+06 0.00699848
7.33061E+06 0.00697214
7.33614E+06 0.00694591
7.34167E+06 0.00691981
7.34719E+06 0.00689383
7.35272E+06 0.00686796
7.35825E+06 0.00684221
7.36377E+06 0.00681657
7.36930E+06 0.00679105
7.37483E+06 0.00676564
7.38035E+06 0.00674035
7.38588E+06 0.00671517
7.39141E+06 0.00669010
7.39694E+06 0.00666515
7.40246E+06 0.00664031
7.40799E+06 0.00661558
7.41352E+06 0.00659096
7.41904E+06 0.00656644
7.42457E+06 0.00654204
7.43010E+06 0.00651775
7.43562E+06 0.00649356
7.44115E+06 0.00646949
7.44668E+06 0.00644552
7.45221E+06 0.00642165
7.45773E+06 0.00639789
7.46326E+06 0.00637424
7.46879E+06 0.00635069
7.47431E+06 0.00632725
7.47984E+06 0.00630391
7.48537E+06 0.00628067
7.49090E+06 0.00625754
7.49642E+06 0.00623451
7.50195E+06 0.00621158
7.50748E+06 0.00618875
7.51300E+06 0.00616602
7.51853E+06 0.00614339
7.52406E+06 0.00612087
7.52958E+06 0.00609844
7.53511E+06 0.00607611
7.54064E+06 0.00605387
7.54617E+06 0.00603174
7.55169E+06 0.00600970
7.55722E+06 0.00598776
7.56275E+06 0.00596591
7.56827E+06 0.00594416
7.57380E+06 0.00592251
7.57933E+06 0.00590095
7.58485E+06 0.00587948
7.59038E+06 0.00585811
7.59591E+06 0.00583683
7.60144E+06 0.00581565
7.60696E+06 0.00579455
7.61249E+06 0.00577355
7.61802E+06 0.00575264
7.62354E+06 0.00573182
7.62907E+06 0.00571109
7.63487E+06 0.00568945
7.64066E+06 0.00566790
7.64646E+06 0.00564645
7.65225E+06 0.00562511
7.65805E+06 0.00560385
7.66385E+06 0.00558270
7.66964E+06 0.00556164
7.67544E+06 0.00554068
7.68123E+06 0.00551981
7.68703E+06 0.00549903
7.69283E+06 0.00547835
7.69862E+06 0.00545776
7.70442E+06 0.00543727
7.71021E+06 0.00541686
7.71601E+06 0.00539655
7.72180E+06 0.00537633
7.72760E+06 0.00535620
7.73340E+06 0.00533617
7.73919E+06 0.00531622
7.74499E+06 0.00529636
7.75078E+06 0.00527659
7.75658E+06 0.00525691
7.76237E+06 0.00523731
7.76817E+06 0.00521781
7.77397E+06 0.00519839
7.77976E+06 0.00517905
7.78556E+06 0.00515981
7.79135E+06 0.00514065
7.79715E+06 0.00512157
7.80294E+06 0.00510258
7.80874E+06 0.00508368
7.81454E+06 0.00506486
7.82033E+06 0.00504612
7.82613E+06 0.00502746
7.83192E+06 0.00500889
7.83772E+06 0.00499040
7.84352E+06 0.00497199
7.84931E+06 0.00495366
7.85511E+06 0.00493542
7.86090E+06 0.00491725
7.86670E+06 0.00489917
7.87249E+06 0.00488116
7.87829E+06 0.00486323
7.88409E+06 0.00484539
7.88988E+06 0.00482762
7.89568E+06 0.00480993
7.90147E+06 0.00479232
7.90727E+06 0.00477478
7.91306E+06 0.00475732
7.91886E+06 0.00473994
7.92466E+06 0.00472263
7.93045E+06 0.00470541
7.93625E+06 0.00468825
7.94204E+06 0.00467117
7.94784E+06 0.00465417
7.95363E+06 0.00463724
7.95943E+06 0.00462038
7.96523E+06 0.00460360
7.97102E+06 0.00458689
7.97682E+06 0.00457025
7.98261E+06 0.00455368
7.98841E+06 0.00453719
7.99421E+06 0.00452077
8.00000E+06 0.00450442
8.00596E+06 0.00448920
8.01192E+06 0.00447404
8.01788E+06 0.00445894
8.02384E+06 0.00444391
8.02980E+06 0.00442893
8.03576E+06 0.00441402
8.04172E+06 0.00439917
8.04767E+06 0.00438438
8.05363E+06 0.00436965
8.05959E+06 0.00435498
8.06555E+06 0.00434037
8.07151E+06 0.00432582
8.07747E+06 0.00431133
8.08343E+06 0.00429690
8.08939E+06 0.00428253
8.09535E+06 0.00426822
8.10131E+06 0.00425396
8.10727E+06 0.00423977
8.11323E+06 0.00422563
8.11919E+06 0.00421155
8.12515E+06 0.00419752
8.13110E+06 0.00418356
8.13706E+06 0.00416965
8.14302E+06 0.00415579
8.14898E+06 0.00414199
8.15494E+06 0.00412825
8.16090E+06 0.00411457
8.16686E+06 0.00410093
8.17282E+06 0.00408736
8.17878E+06 0.00407384
8.18474E+06 0.00406037
8.19070E+06 0.00404696
8.19666E+06 0.00403360
8.20261E+06 0.00402029
8.20857E+06 0.00400704
8.21453E+06 0.00399385
8.22049E+06 0.00398070
8.22645E+06 0.00396761
8.23241E+06 0.00395457
8.23837E+06 0.00394158
8.24433E+06 0.00392864
8.25029E+06 0.00391576
8.25625E+06 0.00390293
8.26221E+06 0.00389015
8.26817E+06 0.00387742
8.27413E+06 0.00386474
8.28008E+06 0.00385211
8.28604E+06 0.00383953
8.29200E+06 0.00382700
8.29796E+06 0.00381452
8.30392E+06 0.00380209
8.30988E+06 0.00378972
8.31584E+06 0.00377738
8.32180E+06 0.00376510
8.32776E+06 0.00375287
8.33372E+06 0.00374069
8.33968E+06 0.00372855
8.34564E+06 0.00371646
8.35160E+06 0.00370442
8.35755E+06 0.00369243
8.36351E+06 0.00368048
8.36947E+06 0.00366859
8.37543E+06 0.00365673
8.38139E+06 0.00364493
8.38788E+06 0.00363212
8.39438E+06 0.00361936
8.40087E+06 0.00360666
8.40736E+06 0.00359402
8.41386E+06 0.00358143
8.42035E+06 0.00356889
8.42684E+06 0.00355641
8.43334E+06 0.00354398
8.43983E+06 0.00353160
8.44632E+06 0.00351927
8.45282E+06 0.00350700
8.45931E+06 0.00349478
8.46580E+06 0.00348261
8.47229E+06 0.00347049
8.47879E+06 0.00345843
8.48528E+06 0.00344641
8.49332E+06 0.00343424
8.50137E+06 0.00342212
8.50941E+06 0.00341005
8.51745E+06 0.00339804
8.52549E+06 0.00338608
8.53354E+06 0.00337418
8.54158E+06 0.00336233
8.54962E+06 0.00335053
8.55766E+06 0.00333878
8.56571E+06 0.00332709
8.57375E+06 0.00331544
8.58179E+06 0.00330385
8.58983E+06 0.00329231
8.59788E+06 0.00328083
8.60592E+06 0.00326939
8.61396E+06 0.00325800
8.62200E+06 0.00324666
8.63005E+06 0.00323538
8.63809E+06 0.00322414
8.64613E+06 0.00321295
8.65417E+06 0.00320181
8.66222E+06 0.00319073
8.67026E+06 0.00317968
8.67830E+06 0.00316869
8.68634E+06 0.00315775
8.69439E+06 0.00314685
8.70243E+06 0.00313600
8.71047E+06 0.00312520
8.71851E+06 0.00311445
8.72656E+06 0.00310374
8.73460E+06 0.00309308
8.74264E+06 0.00308246
8.75068E+06 0.00307189
8.75873E+06 0.00306137
8.76677E+06 0.00305089
8.77481E+06 0.00304046
8.78285E+06 0.00303008
8.79090E+06 0.00301974
8.79894E+06 0.00300944
8.80698E+06 0.00299919
8.81502E+06 0.00298898
8.82307E+06 0.00297881
8.83111E+06 0.00296869
8.83915E+06 0.00295862
8.84719E+06 0.00294858
8.85524E+06 0.00293859
8.86328E+06 0.00292865
8.87132E+06 0.00291874
8.87936E+06 0.00290888
8.88741E+06 0.00289906
8.89545E+06 0.00288928
8.90349E+06 0.00287955
8.91153E+06 0.00286985
8.91958E+06 0.00286020
8.92762E+06 0.00285058
8.93566E+06 0.00284101
8.94370E+06 0.00283148
8.95175E+06 0.00282199
8.95979E+06 0.00281254
8.96783E+06 0.00280313
8.97587E+06 0.00279376
8.98392E+06 0.00278443
8.99196E+06 0.00277514
9.00000E+06 0.00276589
9.00761E+06 0.00275849
9.01521E+06 0.00275112
9.02282E+06 0.00274378
9.03043E+06 0.00273646
9.03803E+06 0.00272916
9.04564E+06 0.00272190
9.05325E+06 0.00271465
9.06085E+06 0.00270744
9.06846E+06 0.00270025
9.07607E+06 0.00269308
9.08368E+06 0.00268594
9.09128E+06 0.00267882
9.09889E+06 0.00267173
9.10650E+06 0.00266466
9.11410E+06 0.00265762
9.12171E+06 0.00265060
9.12932E+06 0.00264360
9.13692E+06 0.00263663
9.14453E+06 0.00262969
9.15214E+06 0.00262277
9.15974E+06 0.00261587
9.16735E+06 0.00260899
9.17496E+06 0.00260214
9.18256E+06 0.00259532
9.19017E+06 0.00258852
9.19778E+06 0.00258174
9.20538E+06 0.00257498
9.21299E+06 0.00256825
9.22060E+06 0.00256154
9.22820E+06 0.00255485
9.23581E+06 0.00254819
9.24342E+06 0.00254155
9.25102E+06 0.00253493
9.25863E+06 0.00252833
9.26624E+06 0.00252176
9.27384E+06 0.00251521
9.28145E+06 0.00250868
9.28906E+06 0.00250217
9.29666E+06 0.00249569
9.30427E+06 0.00248923
9.31188E+06 0.00248279
9.31948E+06 0.00247637
9.32709E+06 0.00246998
9.33470E+06 0.00246360
9.34230E+06 0.00245725
9.34991E+06 0.00245092
9.35752E+06 0.00244461
9.36512E+06 0.00243832
9.37273E+06 0.00243205
9.38034E+06 0.00242581
9.38794E+06 0.00241958
9.39555E+06 0.00241338
9.40316E+06 0.00240720
9.41076E+06 0.00240103
9.41837E+06 0.00239489
9.42598E+06 0.00238877
9.43358E+06 0.00238267
9.44119E+06 0.00237659
9.44880E+06 0.00237053
9.45640E+06 0.00236449
9.46401E+06 0.00235848
9.47162E+06 0.00235248
9.47922E+06 0.00234650
9.48683E+06 0.00234054
9.49485E+06 0.00233600
9.50287E+06 0.00233147
9.51089E+06 0.00232696
9.51890E+06 0.00232246
9.52692E+06 0.00231797
9.53494E+06 0.00231349
9.54296E+06 0.00230903
9.55098E+06 0.00230458
9.55900E+06 0.00230014
9.56701E+06 0.00229571
9.57503E+06 0.00229130
9.58305E+06 0.00228689
9.59107E+06 0.00228250
9.59909E+06 0.00227812
9.60711E+06 0.00227376
9.61512E+06 0.00226940
9.62314E+06 0.00226506
9.63116E+06 0.00226073
9.63918E+06 0.00225641
9.64720E+06 0.00225210
9.65522E+06 0.00224781
9.66323E+06 0.00224353
9.67125E+06 0.00223925
9.67927E+06 0.00223499
9.68729E+06 0.00223075
9.69531E+06 0.00222651
9.70332E+06 0.00222228
9.71134E+06 0.00221807
9.71936E+06 0.00221387
9.72738E+06 0.00220968
9.73540E+06 0.00220550
9.74342E+06 0.00220133
9.75143E+06 0.00219717
9.75945E+06 0.00219303
9.76747E+06 0.00218889
9.77549E+06 0.00218477
9.78351E+06 0.00218066
9.79153E+06 0.00217655
9.79954E+06 0.00217247
9.80756E+06 0.00216839
9.81558E+06 0.00216432
9.82360E+06 0.00216026
9.83162E+06 0.00215622
9.83964E+06 0.00215218
9.84765E+06 0.00214816
9.85567E+06 0.00214414
9.86369E+06 0.00214014
9.87171E+06 0.00213615
9.87973E+06 0.00213217
9.88775E+06 0.00212819
9.89576E+06 0.00212423
9.90378E+06 0.00212029
9.91180E+06 0.00211635
9.91982E+06 0.00211242
9.92784E+06 0.00210850
9.93585E+06 0.00210459
9.94387E+06 0.00210069
9.95189E+06 0.00209681
9.95991E+06 0.00209293
9.96793E+06 0.00208906
9.97595E+06 0.00208521
9.98396E+06 0.00208136
9.99198E+06 0.00207753
1.00000E+07 0.00207370
1.00059E+07 0.00206970
1.00118E+07 0.00206572
1.00177E+07 0.00206175
1.00236E+07 0.00205778
1.00295E+07 0.00205382
1.00354E+07 0.00204988
1.00413E+07 0.00204595
1.00472E+07 0.00204202
1.00531E+07 0.00203810
1.00590E+07 0.00203420
1.00649E+07 0.00203031
1.00708E+07 0.00202642
1.00767E+07 0.00202255
1.00826E+07 0.00201868
1.00885E+07 0.00201483
1.00944E+07 0.00201098
1.01003E+07 0.00200714
1.01062E+07 0.00200331
1.01121E+07 0.00199950
1.01180E+07 0.00199569
1.01239E+07 0.00199189
1.01298E+07 0.00198810
1.01357E+07 0.00198433
1.01416E+07 0.00198056
1.01476E+07 0.00197679
1.01535E+07 0.00197304
1.01594E+07 0.00196930
1.01653E+07 0.00196556
1.01712E+07 0.00196184
1.01771E+07 0.00195813
1.01830E+07 0.00195442
1.01889E+07 0.00195073
1.01948E+07 0.00194703
1.02007E+07 0.00194336
1.02066E+07 0.00193969
1.02125E+07 0.00193603
1.02184E+07 0.00193237
1.02243E+07 0.00192873
1.02302E+07 0.00192510
1.02361E+07 0.00192148
1.02420E+07 0.00191786
1.02479E+07 0.00191425
1.02538E+07 0.00191065
1.02597E+07 0.00190707
1.02656E+07 0.00190349
1.02715E+07 0.00189992
1.02774E+07 0.00189635
1.02833E+07 0.00189280
1.02892E+07 0.00188925
1.02951E+07 0.00188572
1.03010E+07 0.00188219
1.03069E+07 0.00187867
1.03128E+07 0.00187516
1.03187E+07 0.00187166
1.03246E+07 0.00186817
1.03305E+07 0.00186468
1.03364E+07 0.00186120
1.03423E+07 0.00185773
1.03482E+07 0.00185428
1.03541E+07 0.00185083
1.03600E+07 0.00184738
1.03659E+07 0.00184395
1.03718E+07 0.00184052
1.03777E+07 0.00183711
1.03846E+07 0.00183312
1.03915E+07 0.00182915
1.03984E+07 0.00182518
1.04053E+07 0.00182123
1.04122E+07 0.00181729
1.04191E+07 0.00181336
1.04260E+07 0.00180944
1.04329E+07 0.00180554
1.04398E+07 0.00180164
1.04467E+07 0.00179775
1.04536E+07 0.00179388
1.04605E+07 0.00179002
1.04674E+07 0.00178616
1.04743E+07 0.00178232
1.04812E+07 0.00177849
1.04881E+07 0.00177467
1.04961E+07 0.00177138
1.05041E+07 0.00176810
1.05121E+07 0.00176482
1.05201E+07 0.00176156
1.05281E+07 0.00175830
1.05361E+07 0.00175505
1.05441E+07 0.00175181
1.05521E+07 0.00174859
1.05601E+07 0.00174536
1.05681E+07 0.00174215
1.05761E+07 0.00173894
1.05841E+07 0.00173575
1.05921E+07 0.00173256
1.06001E+07 0.00172938
1.06081E+07 0.00172620
1.06161E+07 0.00172304
1.06241E+07 0.00171989
1.06321E+07 0.00171674
1.06401E+07 0.00171360
1.06481E+07 0.00171046
1.06561E+07 0.00170734
1.06641E+07 0.00170422
1.06721E+07 0.00170112
1.06801E+07 0.00169802
1.06881E+07 0.00169493
1.06961E+07 0.00169184
1.07041E+07 0.00168877
1.07121E+07 0.00168570
1.07201E+07 0.00168264
1.07281E+07 0.00167959
1.07361E+07 0.00167654
1.07441E+07 0.00167351
1.07521E+07 0.00167048
1.07601E+07 0.00166746
1.07681E+07 0.00166445
1.07761E+07 0.00166144
1.07841E+07 0.00165844
1.07921E+07 0.00165545
1.08001E+07 0.00165247
1.08080E+07 0.00164950
1.08160E+07 0.00164653
1.08240E+07 0.00164357
1.08320E+07 0.00164061
1.08400E+07 0.00163767
1.08480E+07 0.00163473
1.08560E+07 0.00163180
1.08640E+07 0.00162887
1.08720E+07 0.00162596
1.08800E+07 0.00162305
1.08880E+07 0.00162015
1.08960E+07 0.00161726
1.09040E+07 0.00161437
1.09120E+07 0.00161149
1.09200E+07 0.00160862
1.09280E+07 0.00160575
1.09360E+07 0.00160290
1.09440E+07 0.00160005
1.09520E+07 0.00159721
1.09600E+07 0.00159437
1.09680E+07 0.00159154
1.09760E+07 0.00158872
1.09840E+07 0.00158591
1.09920E+07 0.00158310
1.10000E+07 0.00158030
1.10078E+07 0.00157785
1.10156E+07 0.00157541
1.10234E+07 0.00157297
1.10313E+07 0.00157054
1.10391E+07 0.00156811
1.10469E+07 0.00156569
1.10547E+07 0.00156328
1.10625E+07 0.00156087
1.10703E+07 0.00155847
1.10781E+07 0.00155607
1.10859E+07 0.00155367
1.10938E+07 0.00155129
1.11016E+07 0.00154890
1.11094E+07 0.00154653
1.11172E+07 0.00154416
1.11250E+07 0.00154179
1.11328E+07 0.00153943
1.11406E+07 0.00153707
1.11484E+07 0.00153472
1.11563E+07 0.00153238
1.11641E+07 0.00153003
1.11719E+07 0.00152770
1.11797E+07 0.00152537
1.11875E+07 0.00152305
1.11953E+07 0.00152072
1.12031E+07 0.00151841
1.12109E+07 0.00151610
1.12188E+07 0.00151380
1.12266E+07 0.00151150
1.12344E+07 0.00150920
1.12422E+07 0.00150691
1.12500E+07 0.00150463
1.12578E+07 0.00150235
1.12656E+07 0.00150008
1.12734E+07 0.00149781
1.12813E+07 0.00149555
1.12891E+07 0.00149329
1.12969E+07 0.00149103
1.13047E+07 0.00148878
1.13125E+07 0.00148654
1.13203E+07 0.00148430
1.13281E+07 0.00148207
1.13359E+07 0.00147984
1.13438E+07 0.00147761
1.13516E+07 0.00147539
1.13594E+07 0.00147318
1.13672E+07 0.00147097
1.13750E+07 0.00146877
1.13828E+07 0.00146656
1.13906E+07 0.00146437
1.13984E+07 0.00146218
1.14063E+07 0.00145999
1.14141E+07 0.00145781
1.14219E+07 0.00145563
1.14297E+07 0.00145346
1.14375E+07 0.00145130
1.14453E+07 0.00144913
1.14531E+07 0.00144698
1.14609E+07 0.00144482
1.14688E+07 0.00144268
1.14766E+07 0.00144053
1.14844E+07 0.00143839
1.14922E+07 0.00143626
1.15000E+07 0.00143413
1.15078E+07 0.00143200
1.15156E+07 0.00142989
1.15234E+07 0.00142777
1.15313E+07 0.00142566
1.15391E+07 0.00142355
1.15469E+07 0.00142145
1.15547E+07 0.00141935
1.15625E+07 0.00141726
1.15703E+07 0.00141517
1.15781E+07 0.00141309
1.15859E+07 0.00141101
1.15938E+07 0.00140893
1.16016E+07 0.00140686
1.16094E+07 0.00140479
1.16172E+07 0.00140273
1.16250E+07 0.00140068
1.16328E+07 0.00139862
1.16406E+07 0.00139657
1.16484E+07 0.00139453
1.16563E+07 0.00139249
1.16641E+07 0.00139045
1.16719E+07 0.00138842
1.16797E+07 0.00138640
1.16875E+07 0.00138437
1.16953E+07 0.00138235
1.17031E+07 0.00138034
1.17109E+07 0.00137833
1.17188E+07 0.00137633
1.17266E+07 0.00137432
1.17344E+07 0.00137233
1.17422E+07 0.00137033
1.17500E+07 0.00136835
1.17578E+07 0.00136636
1.17656E+07 0.00136438
1.17734E+07 0.00136241
1.17813E+07 0.00136043
1.17891E+07 0.00135846
1.17969E+07 0.00135650
1.18047E+07 0.00135454
1.18125E+07 0.00135259
1.18203E+07 0.00135064
1.18281E+07 0.00134869
1.18359E+07 0.00134675
1.18438E+07 0.00134481
1.18516E+07 0.00134287
1.18594E+07 0.00134094
1.18672E+07 0.00133902
1.18750E+07 0.00133709
1.18828E+07 0.00133517
1.18906E+07 0.00133326
1.18984E+07 0.00133135
1.19063E+07 0.00132944
1.19141E+07 0.00132754
1.19219E+07 0.00132564
1.19297E+07 0.00132375
1.19375E+07 0.00132186
1.19453E+07 0.00131997
1.19531E+07 0.00131809
1.19609E+07 0.00131621
1.19688E+07 0.00131433
1.19766E+07 0.00131246
1.19844E+07 0.00131059
1.19922E+07 0.00130873
1.20000E+07 0.00130687
1.20078E+07 0.00130534
1.20156E+07 0.00130382
1.20234E+07 0.00130230
1.20313E+07 0.00130078
1.20391E+07 0.00129927
1.20469E+07 0.00129776
1.20547E+07 0.00129625
1.20625E+07 0.00129474
1.20703E+07 0.00129324
1.20781E+07 0.00129174
1.20859E+07 0.00129024
1.20938E+07 0.00128874
1.21016E+07 0.00128725
1.21094E+07 0.00128576
1.21172E+07 0.00128427
1.21250E+07 0.00128279
1.21328E+07 0.00128130
1.21406E+07 0.00127982
1.21484E+07 0.00127835
1.21563E+07 0.00127687
1.21641E+07 0.00127540
1.21719E+07 0.00127393
1.21797E+07 0.00127247
1.21875E+07 0.00127100
1.21953E+07 0.00126954
1.22031E+07 0.00126808
1.22109E+07 0.00126663
1.22188E+07 0.00126518
1.22266E+07 0.00126372
1.22344E+07 0.00126228
1.22422E+07 0.00126083
1.22500E+07 0.00125939
1.22578E+07 0.00125795
1.22656E+07 0.00125651
1.22734E+07 0.00125507
1.22813E+07 0.00125364
1.22891E+07 0.00125221
1.22969E+07 0.00125078
1.23047E+07 0.00124936
1.23125E+07 0.00124794
1.23203E+07 0.00124652
1.23281E+07 0.00124510
1.23359E+07 0.00124368
1.23438E+07 0.00124227
1.23516E+07 0.00124086
1.23594E+07 0.00123945
1.23672E+07 0.00123805
1.23750E+07 0.00123665
1.23828E+07 0.00123525
1.23906E+07 0.00123385
1.23984E+07 0.00123245
1.24063E+07 0.00123106
1.24141E+07 0.00122967
1.24219E+07 0.00122828
1.24297E+07 0.00122690
1.24375E+07 0.00122552
1.24453E+07 0.00122413
1.24531E+07 0.00122276
1.24609E+07 0.00122138
1.24688E+07 0.00122001
1.24766E+07 0.00121864
1.24844E+07 0.00121727
1.24922E+07 0.00121590
1.25000E+07 0.00121454
1.25078E+07 0.00121318
1.25156E+07 0.00121182
1.25234E+07 0.00121046
1.25313E+07 0.00120911
1.25391E+07 0.00120776
1.25469E+07 0.00120641
1.25547E+07 0.00120506
1.25625E+07 0.00120372
1.25703E+07 0.00120237
1.25781E+07 0.00120103
1.25859E+07 0.00119969
1.25938E+07 0.00119836
1.26016E+07 0.00119703
1.26094E+07 0.00119569
1.26172E+07 0.00119437
1.26250E+07 0.00119304
1.26328E+07 0.00119172
1.26406E+07 0.00119039
1.26484E+07 0.00118908
1.26563E+07 0.00118776
1.26641E+07 0.00118644
1.26719E+07 0.00118513
1.26797E+07 0.00118382
1.26875E+07 0.00118251
1.26953E+07 0.00118121
1.27031E+07 0.00117990
1.27109E+07 0.00117860
1.27188E+07 0.00117730
1.27266E+07 0.00117601
1.27344E+07 0.00117471
1.27422E+07 0.00117342
1.27500E+07 0.00117213
1.27578E+07 0.00117084
1.27656E+07 0.00116955
1.27734E+07 0.00116827
1.27813E+07 0.00116699
1.27891E+07 0.00116571
1.27969E+07 0.00116443
1.28047E+07 0.00116316
1.28125E+07 0.00116189
1.28203E+07 0.00116061
1.28281E+07 0.00115935
1.28359E+07 0.00115808
1.28438E+07 0.00115682
1.28516E+07 0.00115555
1.28594E+07 0.00115429
1.28672E+07 0.00115304
1.28750E+07 0.00115178
1.28828E+07 0.00115053
1.28906E+07 0.00114928
1.28984E+07 0.00114803
1.29063E+07 0.00114678
1.29141E+07 0.00114554
1.29219E+07 0.00114429
1.29297E+07 0.00114305
1.29375E+07 0.00114181
1.29453E+07 0.00114058
1.29531E+07 0.00113934
1.29609E+07 0.00113811
1.29688E+07 0.00113688
1.29766E+07 0.00113565
1.29844E+07 0.00113443
1.29922E+07 0.00113320
1.30000E+07 0.00113198
1.30078E+07 0.00113133
1.30156E+07 0.00113068
1.30234E+07 0.00113003
1.30313E+07 0.00112938
1.30391E+07 0.00112873
1.30469E+07 0.00112808
1.30547E+07 0.00112743
1.30625E+07 0.00112678
1.30703E+07 0.00112614
1.30781E+07 0.00112549
1.30859E+07 0.00112485
1.30938E+07 0.00112421
1.31016E+07 0.00112356
1.31094E+07 0.00112292
1.31172E+07 0.00112228
1.31250E+07 0.00112164
1.31328E+07 0.00112100
1.31406E+07 0.00112036
1.31484E+07 0.00111972
1.31563E+07 0.00111908
1.31641E+07 0.00111844
1.31719E+07 0.00111781
1.31797E+07 0.00111717
1.31875E+07 0.00111654
1.31953E+07 0.00111590
1.32031E+07 0.00111527
1.32109E+07 0.00111464
1.32188E+07 0.00111401
1.32266E+07 0.00111338
1.32344E+07 0.00111274
1.32422E+07 0.00111212
1.32500E+07 0.00111149
1.32578E+07 0.00111086
1.32656E+07 0.00111023
1.32734E+07 0.00110960
1.32813E+07 0.00110898
1.32891E+07 0.00110835
1.32969E+07 0.00110773
1.33047E+07 0.00110710
1.33125E+07 0.00110648
1.33203E+07 0.00110586
1.33281E+07 0.00110524
1.33359E+07 0.00110462
1.33438E+07 0.00110400
1.33516E+07 0.00110338
1.33594E+07 0.00110276
1.33672E+07 0.00110214
1.33750E+07 0.00110152
1.33828E+07 0.00110090
1.33906E+07 0.00110029
1.33984E+07 0.00109967
1.34063E+07 0.00109906
1.34141E+07 0.00109844
1.34219E+07 0.00109783
1.34297E+07 0.00109722
1.34375E+07 0.00109661
1.34453E+07 0.00109599
1.34531E+07 0.00109538
1.34609E+07 0.00109477
1.34688E+07 0.00109417
1.34766E+07 0.00109356
1.34844E+07 0.00109295
1.34922E+07 0.00109234
1.35000E+07 0.00109174
1.35078E+07 0.00109113
1.35156E+07 0.00109053
1.35234E+07 0.00108992
1.35313E+07 0.00108932
1.35391E+07 0.00108871
1.35469E+07 0.00108811
1.35547E+07 0.00108751
1.35625E+07 0.00108691
1.35703E+07 0.00108631
1.35781E+07 0.00108571
1.35859E+07 0.00108511
1.35938E+07 0.00108451
1.36016E+07 0.00108392
1.36094E+07 0.00108332
1.36172E+07 0.00108272
1.36250E+07 0.00108213
1.36328E+07 0.00108153
1.36406E+07 0.00108094
1.36484E+07 0.00108035
1.36563E+07 0.00107975
1.36641E+07 0.00107916
1.36719E+07 0.00107857
1.36797E+07 0.00107798
1.36875E+07 0.00107739
1.36953E+07 0.00107680
1.37031E+07 0.00107621
1.37109E+07 0.00107562
1.37188E+07 0.00107503
1.37266E+07 0.00107445
1.37344E+07 0.00107386
1.37422E+07 0.00107327
1.37500E+07 0.00107269
1.37578E+07 0.00107211
1.37656E+07 0.00107152
1.37734E+07 0.00107094
1.37813E+07 0.00107036
1.37891E+07 0.00106977
1.37969E+07 0.00106919
1.38047E+07 0.00106861
1.38125E+07 0.00106803
1.38203E+07 0.00106745
1.38281E+07 0.00106688
1.38359E+07 0.00106630
1.38438E+07 0.00106572
1.38516E+07 0.00106514
1.38594E+07 0.00106457
1.38672E+07 0.00106399
1.38750E+07 0.00106342
1.38828E+07 0.00106284
1.38906E+07 0.00106227
1.38984E+07 0.00106170
1.39063E+07 0.00106113
1.39141E+07 0.00106056
1.39219E+07 0.00105998
1.39297E+07 0.00105941
1.39375E+07 0.00105884
1.39453E+07 0.00105828
1.39531E+07 0.00105771
1.39609E+07 0.00105714
1.39688E+07 0.00105657
1.39766E+07 0.00105601
1.39844E+07 0.00105544
1.39922E+07 0.00105487
1.40000E+07 0.00105431
1.40156E+07 0.00105395
1.40313E+07 0.00105358
1.40469E+07 0.00105322
1.40625E+07 0.00105285
1.40781E+07 0.00105249
1.40938E+07 0.00105213
1.41094E+07 0.00105177
1.41250E+07 0.00105141
1.41406E+07 0.00105105
1.41563E+07 0.00105069
1.41719E+07 0.00105033
1.41875E+07 0.00104997
1.42031E+07 0.00104961
1.42188E+07 0.00104925
1.42344E+07 0.00104890
1.42500E+07 0.00104854
1.42656E+07 0.00104818
1.42813E+07 0.00104783
1.42969E+07 0.00104747
1.43125E+07 0.00104712
1.43281E+07 0.00104676
1.43438E+07 0.00104641
1.43594E+07 0.00104606
1.43750E+07 0.00104570
1.43906E+07 0.00104535
1.44063E+07 0.00104500
1.44219E+07 0.00104465
1.44375E+07 0.00104430
1.44531E+07 0.00104395
1.44688E+07 0.00104360
1.44844E+07 0.00104325
1.45000E+07 0.00104290
1.45148E+07 0.00104257
1.45297E+07 0.00104224
1.45445E+07 0.00104191
1.45593E+07 0.00104158
1.45741E+07 0.00104125
1.45890E+07 0.00104092
1.46038E+07 0.00104059
1.46186E+07 0.00104027
1.46305E+07 0.00104000
1.46424E+07 0.00103974
1.46544E+07 0.00103948
1.46663E+07 0.00103922
1.46782E+07 0.00103896
1.46901E+07 0.00103869
1.47020E+07 0.00103843
1.47140E+07 0.00103817
1.47259E+07 0.00103791
1.47378E+07 0.00103765
1.47497E+07 0.00103739
1.47616E+07 0.00103713
1.47736E+07 0.00103687
1.47855E+07 0.00103661
1.47974E+07 0.00103635
1.48093E+07 0.00103609
1.48212E+07 0.00103584
1.48331E+07 0.00103558
1.48451E+07 0.00103532
1.48570E+07 0.00103506
1.48689E+07 0.00103480
1.48808E+07 0.00103455
1.48927E+07 0.00103429
1.49047E+07 0.00103403
1.49166E+07 0.00103378
1.49285E+07 0.00103352
1.49404E+07 0.00103327
1.49523E+07 0.00103301
1.49643E+07 0.00103275
1.49762E+07 0.00103250
1.49881E+07 0.00103224
1.50000E+07 0.00103199
1.50130E+07 0.00103206
1.50260E+07 0.00103213
1.50390E+07 0.00103219
1.50521E+07 0.00103226
1.50651E+07 0.00103233
1.50781E+07 0.00103240
1.50911E+07 0.00103247
1.51041E+07 0.00103253
1.51171E+07 0.00103260
1.51301E+07 0.00103267
1.51431E+07 0.00103273
1.51561E+07 0.00103280
1.51692E+07 0.00103287
1.51822E+07 0.00103294
1.51952E+07 0.00103300
1.52082E+07 0.00103307
1.52212E+07 0.00103314
1.52342E+07 0.00103321
1.52472E+07 0.00103327
1.52602E+07 0.00103334
1.52732E+07 0.00103341
1.52863E+07 0.00103347
1.52993E+07 0.00103354
1.53123E+07 0.00103361
1.53253E+07 0.00103367
1.53383E+07 0.00103374
1.53513E+07 0.00103381
1.53643E+07 0.00103387
1.53773E+07 0.00103394
1.53903E+07 0.00103401
1.54033E+07 0.00103407
1.54164E+07 0.00103414
1.54294E+07 0.00103420
1.54424E+07 0.00103427
1.54554E+07 0.00103434
1.54684E+07 0.00103440
1.54814E+07 0.00103447
1.54944E+07 0.00103454
1.55074E+07 0.00103460
1.55204E+07 0.00103467
1.55335E+07 0.00103473
1.55465E+07 0.00103480
1.55595E+07 0.00103486
1.55725E+07 0.00103493
1.55855E+07 0.00103500
1.55985E+07 0.00103506
1.56115E+07 0.00103513
1.56245E+07 0.00103519
1.56376E+07 0.00103526
1.56506E+07 0.00103532
1.56636E+07 0.00103539
1.56766E+07 0.00103545
1.56896E+07 0.00103552
1.57026E+07 0.00103558
1.57156E+07 0.00103565
1.57286E+07 0.00103571
1.57416E+07 0.00103578
1.57546E+07 0.00103584
1.57677E+07 0.00103591
1.57807E+07 0.00103597
1.57937E+07 0.00103604
1.58067E+07 0.00103610
1.58197E+07 0.00103617
1.58327E+07 0.00103623
1.58536E+07 0.00103634
1.58745E+07 0.00103644
1.58954E+07 0.00103654
1.59164E+07 0.00103665
1.59373E+07 0.00103675
1.59582E+07 0.00103685
1.59791E+07 0.00103696
1.60000E+07 0.00103706
1.60313E+07 0.00103778
1.60625E+07 0.00103849
1.60938E+07 0.00103920
1.61250E+07 0.00103991
1.61563E+07 0.00104063
1.61875E+07 0.00104134
1.62188E+07 0.00104205
1.62500E+07 0.00104275
1.62813E+07 0.00104346
1.63125E+07 0.00104417
1.63438E+07 0.00104487
1.63750E+07 0.00104558
1.64063E+07 0.00104628
1.64375E+07 0.00104699
1.64688E+07 0.00104769
1.65000E+07 0.00104839
1.65313E+07 0.00104909
1.65625E+07 0.00104979
1.65938E+07 0.00105049
1.66250E+07 0.00105119
1.66563E+07 0.00105189
1.66875E+07 0.00105258
1.67188E+07 0.00105328
1.67500E+07 0.00105397
1.67813E+07 0.00105467
1.68125E+07 0.00105536
1.68438E+07 0.00105605
1.68750E+07 0.00105674
1.69063E+07 0.00105743
1.69375E+07 0.00105812
1.69688E+07 0.00105881
1.70000E+07 0.00105950
1.70156E+07 0.00106005
1.70313E+07 0.00106060
1.70469E+07 0.00106115
1.70625E+07 0.00106170
1.70781E+07 0.00106225
1.70938E+07 0.00106280
1.71094E+07 0.00106335
1.71250E+07 0.00106390
1.71406E+07 0.00106445
1.71563E+07 0.00106500
1.71719E+07 0.00106554
1.71875E+07 0.00106609
1.72031E+07 0.00106664
1.72188E+07 0.00106719
1.72344E+07 0.00106774
1.72500E+07 0.00106828
1.72656E+07 0.00106883
1.72813E+07 0.00106938
1.72969E+07 0.00106992
1.73125E+07 0.00107047
1.73281E+07 0.00107102
1.73438E+07 0.00107156
1.73594E+07 0.00107211
1.73750E+07 0.00107265
1.73906E+07 0.00107320
1.74063E+07 0.00107374
1.74219E+07 0.00107429
1.74375E+07 0.00107483
1.74531E+07 0.00107538
1.74688E+07 0.00107592
1.74844E+07 0.00107646
1.75000E+07 0.00107701
1.75156E+07 0.00107755
1.75313E+07 0.00107810
1.75469E+07 0.00107864
1.75625E+07 0.00107918
1.75781E+07 0.00107972
1.75938E+07 0.00108027
1.76094E+07 0.00108081
1.76250E+07 0.00108135
1.76406E+07 0.00108189
1.76563E+07 0.00108244
1.76719E+07 0.00108298
1.76875E+07 0.00108352
1.77031E+07 0.00108406
1.77188E+07 0.00108460
1.77344E+07 0.00108514
1.77500E+07 0.00108568
1.77656E+07 0.00108622
1.77813E+07 0.00108676
1.77969E+07 0.00108730
1.78125E+07 0.00108784
1.78281E+07 0.00108838
1.78438E+07 0.00108892
1.78594E+07 0.00108946
1.78750E+07 0.00109000
1.78906E+07 0.00109054
1.79063E+07 0.00109107
1.79219E+07 0.00109161
1.79375E+07 0.00109215
1.79531E+07 0.00109269
1.79688E+07 0.00109323
1.79844E+07 0.00109376
1.80000E+07 0.00109430
1.80357E+07 0.00109593
1.80508E+07 0.00109661
1.80658E+07 0.00109730
1.80809E+07 0.00109799
1.80960E+07 0.00109867
1.81110E+07 0.00109936
1.81261E+07 0.00110004
1.81412E+07 0.00110073
1.81562E+07 0.00110141
1.81713E+07 0.00110210
1.81864E+07 0.00110278
1.82015E+07 0.00110347
1.82165E+07 0.00110415
1.82316E+07 0.00110484
1.82467E+07 0.00110552
1.82617E+07 0.00110621
1.82768E+07 0.00110689
1.82919E+07 0.00110758
1.83069E+07 0.00110826
1.83220E+07 0.00110894
1.83371E+07 0.00110963
1.83521E+07 0.00111031
1.83672E+07 0.00111099
1.83823E+07 0.00111168
1.83973E+07 0.00111236
1.84124E+07 0.00111304
1.84275E+07 0.00111373
1.84425E+07 0.00111441
1.84576E+07 0.00111509
1.84727E+07 0.00111577
1.84877E+07 0.00111646
1.85028E+07 0.00111714
1.85179E+07 0.00111782
1.85329E+07 0.00111850
1.85480E+07 0.00111918
1.85631E+07 0.00111987
1.85781E+07 0.00112055
1.85932E+07 0.00112123
1.86083E+07 0.00112191
1.86233E+07 0.00112259
1.86384E+07 0.00112327
1.86535E+07 0.00112395
1.86685E+07 0.00112463
1.86836E+07 0.00112531
1.86987E+07 0.00112599
1.87137E+07 0.00112667
1.87288E+07 0.00112735
1.87439E+07 0.00112803
1.87589E+07 0.00112871
1.87740E+07 0.00112939
1.87891E+07 0.00113007
1.88041E+07 0.00113075
1.88192E+07 0.00113143
1.88343E+07 0.00113211
1.88493E+07 0.00113279
1.88644E+07 0.00113347
1.88795E+07 0.00113415
1.88945E+07 0.00113482
1.89096E+07 0.00113550
1.89247E+07 0.00113618
1.89397E+07 0.00113686
1.89548E+07 0.00113754
1.89699E+07 0.00113822
1.89849E+07 0.00113889
1.90000E+07 0.00113957
1.90156E+07 0.00114042
1.90313E+07 0.00114127
1.90469E+07 0.00114212
1.90625E+07 0.00114297
1.90781E+07 0.00114382
1.90938E+07 0.00114467
1.91094E+07 0.00114552
1.91250E+07 0.00114637
1.91406E+07 0.00114722
1.91563E+07 0.00114807
1.91719E+07 0.00114892
1.91875E+07 0.00114976
1.92031E+07 0.00115061
1.92188E+07 0.00115146
1.92344E+07 0.00115231
1.92500E+07 0.00115316
1.92656E+07 0.00115401
1.92813E+07 0.00115486
1.92969E+07 0.00115571
1.93125E+07 0.00115655
1.93281E+07 0.00115740
1.93438E+07 0.00115825
1.93594E+07 0.00115910
1.93750E+07 0.00115995
1.93906E+07 0.00116080
1.94063E+07 0.00116164
1.94219E+07 0.00116249
1.94375E+07 0.00116334
1.94531E+07 0.00116419
1.94688E+07 0.00116504
1.94844E+07 0.00116589
1.95000E+07 0.00116673
1.95156E+07 0.00116758
1.95313E+07 0.00116843
1.95469E+07 0.00116928
1.95625E+07 0.00117012
1.95781E+07 0.00117097
1.95938E+07 0.00117182
1.96094E+07 0.00117267
1.96250E+07 0.00117351
1.96406E+07 0.00117436
1.96563E+07 0.00117521
1.96719E+07 0.00117606
1.96875E+07 0.00117690
1.97031E+07 0.00117775
1.97188E+07 0.00117860
1.97344E+07 0.00117944
1.97500E+07 0.00118029
1.97656E+07 0.00118114
1.97813E+07 0.00118198
1.97969E+07 0.00118283
1.98125E+07 0.00118368
1.98281E+07 0.00118452
1.98438E+07 0.00118537
1.98594E+07 0.00118622
1.98750E+07 0.00118706
1.98906E+07 0.00118791
1.99063E+07 0.00118875
1.99219E+07 0.00118960
1.99375E+07 0.00119045
1.99531E+07 0.00119129
1.99688E+07 0.00119214
1.99844E+07 0.00119298
2.00000E+07 0.00119383
