Xe-128(n,tot) ENDFB-8.0
Energy(eV) XS(b)
1.00000E-05 201.312
1.03125E-05 198.251
1.06250E-05 195.327
1.09375E-05 192.528
1.12500E-05 189.848
1.15625E-05 187.277
1.18750E-05 184.808
1.21875E-05 182.435
1.25000E-05 180.151
1.28125E-05 177.952
1.31250E-05 175.832
1.34375E-05 173.787
1.37500E-05 171.811
1.43750E-05 168.056
1.50000E-05 164.539
1.56250E-05 161.235
1.62500E-05 158.124
1.68750E-05 155.188
1.75000E-05 152.411
1.81250E-05 149.779
1.87500E-05 147.280
1.93750E-05 144.904
2.00000E-05 142.640
2.09375E-05 139.436
2.18750E-05 136.441
2.28125E-05 133.634
2.37500E-05 130.994
2.46875E-05 128.507
2.56250E-05 126.159
2.65625E-05 123.936
2.75000E-05 121.828
2.84375E-05 119.825
2.93750E-05 117.920
3.03125E-05 116.104
3.12500E-05 114.370
3.21875E-05 112.714
3.31250E-05 111.128
3.40625E-05 109.609
3.50000E-05 108.151
3.59375E-05 106.751
3.68750E-05 105.405
3.78125E-05 104.109
3.87500E-05 102.861
3.96875E-05 101.658
4.06250E-05 100.497
4.25000E-05 98.2914
4.43750E-05 96.2280
4.62500E-05 94.2920
4.81250E-05 92.4710
5.00000E-05 90.7539
5.15625E-05 89.3956
5.31250E-05 88.0981
5.46875E-05 86.8569
5.62500E-05 85.6681
5.78125E-05 84.5281
5.93750E-05 83.4338
6.09375E-05 82.3821
6.25000E-05 81.3704
6.40625E-05 80.3962
6.56250E-05 79.4573
6.71875E-05 78.5515
6.87500E-05 77.6770
7.18750E-05 76.0151
7.50000E-05 74.4591
7.81250E-05 72.9981
8.12500E-05 71.6229
8.43750E-05 70.3256
8.75000E-05 69.0990
9.06250E-05 67.9371
9.37500E-05 66.8342
9.68750E-05 65.7858
0.000100000 64.7873
0.000103125 63.8351
0.000106250 62.9257
0.000109375 62.0559
0.000112500 61.2230
0.000115625 60.4246
0.000118750 59.6582
0.000121875 58.9218
0.000125000 58.2136
0.000128125 57.5317
0.000131250 56.8747
0.000134375 56.2410
0.000137500 55.6293
0.000143750 54.4671
0.000150000 53.3793
0.000156250 52.3583
0.000162500 51.3976
0.000168750 50.4916
0.000175000 49.6353
0.000181250 48.8243
0.000187500 48.0549
0.000193750 47.3236
0.000200000 46.6274
0.000209375 45.6430
0.000218750 44.7237
0.000228125 43.8627
0.000237500 43.0540
0.000246875 42.2926
0.000256250 41.5742
0.000265625 40.8948
0.000275000 40.2511
0.000284375 39.6401
0.000293750 39.0592
0.000303125 38.5059
0.000312500 37.9782
0.000321875 37.4742
0.000331250 36.9921
0.000340625 36.5305
0.000350000 36.0879
0.000359375 35.6631
0.000368750 35.2550
0.000378125 34.8624
0.000387500 34.4845
0.000396875 34.1203
0.000406250 33.7690
0.000425000 33.1024
0.000443750 32.4794
0.000462500 31.8954
0.000481250 31.3466
0.000500000 30.8297
0.000515625 30.4210
0.000531250 30.0309
0.000546875 29.6580
0.000562500 29.3011
0.000578125 28.9590
0.000593750 28.6308
0.000609375 28.3156
0.000625000 28.0125
0.000640625 27.7208
0.000656250 27.4398
0.000671875 27.1689
0.000687500 26.9074
0.000718750 26.4108
0.000750000 25.9462
0.000781250 25.5103
0.000812500 25.1003
0.000843750 24.7138
0.000875000 24.3485
0.000906250 24.0026
0.000937500 23.6746
0.000968750 23.3628
0.00100000 23.0660
0.00103125 22.7830
0.00106250 22.5129
0.00109375 22.2546
0.00112500 22.0073
0.00115625 21.7704
0.00118750 21.5430
0.00121875 21.3245
0.00125000 21.1144
0.00128125 20.9122
0.00131250 20.7174
0.00134375 20.5295
0.00137500 20.3482
0.00143750 20.0037
0.00150000 19.6813
0.00156250 19.3787
0.00162500 19.0940
0.00168750 18.8256
0.00175000 18.5718
0.00181250 18.3315
0.00187500 18.1034
0.00193750 17.8867
0.00200000 17.6803
0.00209375 17.3884
0.00218750 17.1158
0.00228125 16.8604
0.00237500 16.6204
0.00246875 16.3944
0.00256250 16.1811
0.00265625 15.9793
0.00275000 15.7880
0.00284375 15.6064
0.00293750 15.4336
0.00303125 15.2690
0.00312500 15.1120
0.00321875 14.9619
0.00331250 14.8184
0.00340625 14.6808
0.00350000 14.5489
0.00359375 14.4222
0.00368750 14.3005
0.00378125 14.1833
0.00387500 14.0705
0.00396875 13.9617
0.00406250 13.8568
0.00425000 13.6575
0.00443750 13.4711
0.00462500 13.2963
0.00481250 13.1318
0.00500000 12.9768
0.00515625 12.8542
0.00531250 12.7371
0.00546875 12.6251
0.00562500 12.5179
0.00578125 12.4150
0.00593750 12.3163
0.00609375 12.2214
0.00625000 12.1301
0.00640625 12.0422
0.00656250 11.9576
0.00671875 11.8758
0.00687500 11.7970
0.00718750 11.6471
0.00750000 11.5067
0.00781250 11.3749
0.00812500 11.2508
0.00843750 11.1337
0.00875000 11.0230
0.00906250 10.9181
0.00937500 10.8186
0.00968750 10.7239
0.0100000 10.6337
0.0103125 10.5477
0.0106250 10.4656
0.0109375 10.3870
0.0112500 10.3117
0.0115625 10.2395
0.0118750 10.1702
0.0121875 10.1036
0.0125000 10.0396
0.0128125 9.97789
0.0131250 9.91844
0.0134375 9.86108
0.0137500 9.80570
0.0143750 9.70045
0.0150000 9.60187
0.0156250 9.50930
0.0162500 9.42214
0.0168750 9.33990
0.0175000 9.26212
0.0181250 9.18842
0.0187500 9.11846
0.0193750 9.05192
0.0200000 8.98854
0.0206625 8.92455
0.0213250 8.86357
0.0219875 8.80539
0.0226500 8.74979
0.0233125 8.69660
0.0239750 8.64563
0.0246375 8.59675
0.0253000 8.54981
0.0264578 8.47207
0.0276156 8.39930
0.0287734 8.33100
0.0299313 8.26673
0.0310891 8.20610
0.0322469 8.14878
0.0334047 8.09449
0.0345625 8.04296
0.0355274 8.00195
0.0364922 7.96259
0.0374570 7.92477
0.0384219 7.88838
0.0393867 7.85333
0.0403516 7.81956
0.0413164 7.78698
0.0422813 7.75552
0.0442109 7.69575
0.0461406 7.63978
0.0480703 7.58723
0.0500000 7.53777
0.0515625 7.49978
0.0531250 7.46349
0.0546875 7.42877
0.0562500 7.39552
0.0578125 7.36363
0.0593750 7.33301
0.0609375 7.30359
0.0625000 7.27529
0.0640625 7.24804
0.0656250 7.22178
0.0671875 7.19645
0.0687500 7.17199
0.0718750 7.12549
0.0750000 7.08192
0.0781250 7.04100
0.0812500 7.00246
0.0843750 6.96609
0.0875000 6.93170
0.0906250 6.89911
0.0937500 6.86817
0.0968750 6.83874
0.100000 6.81072
0.103125 6.78398
0.106250 6.75844
0.109375 6.73401
0.112500 6.71060
0.115625 6.68816
0.118750 6.66662
0.121875 6.64592
0.125000 6.62601
0.128125 6.60685
0.131250 6.58838
0.137500 6.55334
0.143750 6.52061
0.150000 6.48993
0.156250 6.46112
0.162500 6.43400
0.168750 6.40841
0.175000 6.38421
0.181250 6.36127
0.187500 6.33951
0.193750 6.31882
0.200000 6.29912
0.209375 6.27125
0.218750 6.24517
0.228125 6.22072
0.237500 6.19774
0.246875 6.17609
0.256250 6.15564
0.265625 6.13629
0.275000 6.11794
0.284375 6.10051
0.293750 6.08393
0.303125 6.06812
0.312500 6.05304
0.321875 6.03862
0.331250 6.02483
0.340625 6.01160
0.350000 5.99892
0.359375 5.98673
0.368750 5.97502
0.378125 5.96375
0.387500 5.95289
0.396875 5.94244
0.406250 5.93235
0.425000 5.91319
0.443750 5.89522
0.462500 5.87836
0.500000 5.84760
0.531250 5.82450
0.562500 5.80331
0.625000 5.76582
0.687500 5.73357
0.750000 5.70546
0.812500 5.68066
0.875000 5.65864
0.937500 5.63886
1.00000 5.62092
1.06250 5.60459
1.12500 5.58966
1.25000 5.56327
1.37500 5.54062
1.50000 5.52095
1.62500 5.50368
1.75000 5.48844
1.87500 5.47487
2.00000 5.46269
2.16406 5.44859
2.32813 5.43634
2.49219 5.42567
2.65625 5.41642
2.75000 5.41175
2.93750 5.40356
3.12500 5.39684
3.31250 5.39154
3.50000 5.38764
3.68750 5.38513
3.87500 5.38405
4.06250 5.38447
4.25000 5.38648
4.43750 5.39022
4.62500 5.39587
4.81250 5.40364
5.00000 5.41378
5.17934 5.42606
5.35869 5.44127
5.53803 5.45982
5.71737 5.48228
5.80704 5.49524
5.89671 5.50942
5.98638 5.52507
6.07605 5.54215
6.16573 5.56092
6.25540 5.58131
6.34507 5.60393
6.43474 5.62885
6.53857 5.66087
6.64240 5.69671
6.74623 5.73691
6.85006 5.78211
6.95389 5.83303
7.05772 5.89058
7.16155 5.95582
7.26538 6.03004
7.35977 6.10663
7.45416 6.19336
7.50135 6.24106
7.54855 6.29197
7.59574 6.34638
7.64294 6.40458
7.69013 6.46693
7.73733 6.53379
7.78452 6.60561
7.83172 6.68282
7.87892 6.76588
7.92611 6.85529
7.97331 6.95181
8.02050 7.05641
8.07242 7.18191
8.12433 7.31951
8.17625 7.47068
8.22816 7.63719
8.28008 7.82113
8.33199 8.02494
8.38391 8.25149
8.43582 8.50421
8.48773 8.78719
8.51369 8.94153
8.53965 9.10535
8.56561 9.27942
8.59156 9.46461
8.61752 9.66186
8.64348 9.87223
8.66944 10.0969
8.69539 10.3371
8.72135 10.5944
8.74731 10.8703
8.77327 11.1666
8.79922 11.4854
8.82518 11.8288
8.85114 12.1994
8.87946 12.6382
8.90777 13.1175
8.93609 13.6425
8.96441 14.2192
8.99272 14.8547
9.02104 15.5568
9.04936 16.3353
9.07768 17.2012
9.10363 18.0835
9.12959 19.0632
9.15555 20.1550
9.16853 20.7484
9.18151 21.3767
9.19448 22.0429
9.20746 22.7499
9.22044 23.5011
9.23342 24.3003
9.24640 25.1517
9.25938 26.0599
9.27236 27.0301
9.28534 28.0679
9.30421 29.7120
9.32309 31.5363
9.34197 33.5682
9.35141 34.6721
9.36085 35.8410
9.37029 37.0799
9.37973 38.3949
9.38917 39.7922
9.39860 41.2790
9.40804 42.8632
9.41748 44.5538
9.42692 46.3606
9.43636 48.2946
9.44934 51.1849
9.46232 54.3770
9.47530 57.9154
9.48828 61.8530
9.49477 63.9916
9.50125 66.2548
9.50774 68.6535
9.51423 71.1985
9.52072 73.9030
9.52721 76.7804
9.53370 79.8466
9.54019 83.1192
9.54639 86.4543
9.55258 90.0143
9.55877 93.8219
9.56497 97.9004
9.57116 102.279
9.57736 106.987
9.58355 112.060
9.58975 117.539
9.59594 123.471
9.60213 129.905
9.60833 136.903
9.61452 144.531
9.62072 152.867
9.62691 161.997
9.63311 172.021
9.63620 177.402
9.63930 183.050
9.64255 189.272
9.64579 195.824
9.64904 202.728
9.65228 210.003
9.65552 217.678
9.65877 225.775
9.66201 234.320
9.66526 243.338
9.66850 252.864
9.67175 262.925
9.67499 273.552
9.67824 284.774
9.68148 296.633
9.68473 309.156
9.68797 322.386
9.69122 336.352
9.69358 346.999
9.69594 358.073
9.69830 369.587
9.70065 381.551
9.70301 393.991
9.70537 406.916
9.70773 420.342
9.71009 434.275
9.71334 454.308
9.71658 475.377
9.71983 497.516
9.72307 520.752
9.72632 545.128
9.72956 570.666
9.73281 597.390
9.73605 625.312
9.73826 645.061
9.74048 665.373
9.74269 686.262
9.74490 707.727
9.74711 729.780
9.74933 752.400
9.75154 775.594
9.75375 799.358
9.75699 835.241
9.76024 872.303
9.76348 910.536
9.76673 949.876
9.76997 990.299
9.77322 1031.73
9.77646 1074.11
9.77971 1117.34
9.78472 1185.68
9.78974 1255.49
9.79475 1326.39
9.79976 1397.88
9.80625 1490.45
9.81274 1581.92
9.81923 1670.97
9.82572 1756.22
9.83516 1870.56
9.83988 1922.26
9.84460 1969.62
9.85271 2039.59
9.85677 2068.58
9.86083 2093.27
9.86488 2113.47
9.86894 2129.01
9.87299 2139.77
9.87705 2145.67
9.88000 2146.88
9.88738 2138.56
9.89475 2114.28
9.89909 2092.77
9.90343 2066.17
9.90777 2034.70
9.91211 1998.67
9.91645 1958.38
9.92079 1914.20
9.92514 1866.49
9.92948 1815.66
9.93573 1737.69
9.94199 1655.33
9.94824 1569.81
9.95450 1482.33
9.96133 1386.02
9.96815 1290.12
9.97498 1195.86
9.98180 1104.29
9.99090 987.868
9.99545 932.540
10.0000 879.334
10.0067 804.861
10.0134 735.580
10.0202 671.380
10.0235 641.224
10.0269 612.434
10.0302 584.821
10.0336 558.453
10.0369 533.301
10.0403 509.408
10.0437 486.596
10.0470 464.906
10.0504 444.299
10.0537 424.793
10.0571 406.232
10.0604 388.636
10.0638 371.964
10.0672 356.219
10.0705 341.268
10.0739 327.119
10.0772 313.730
10.0806 301.101
10.0839 289.119
10.0873 277.784
10.0907 267.062
10.0940 256.947
10.0974 247.347
10.1007 238.287
10.1041 229.684
10.1074 221.559
10.1123 210.458
10.1172 200.207
10.1221 190.691
10.1270 181.884
10.1319 173.689
10.1367 166.086
10.1416 159.005
10.1465 152.403
10.1514 146.226
10.1563 140.462
10.1612 135.064
10.1660 130.001
10.1709 125.236
10.1758 120.765
10.1807 116.554
10.1856 112.583
10.1923 107.474
10.1990 102.748
10.2057 98.3552
10.2124 94.2746
10.2191 90.4654
10.2259 86.9132
10.2326 83.5898
10.2393 80.4750
10.2460 77.5470
10.2527 74.7984
10.2594 72.2107
10.2661 69.7709
10.2728 67.4645
10.2796 65.2878
10.2930 61.2767
10.3064 57.6665
10.3198 54.4067
10.3333 51.4522
10.3467 48.7653
10.3601 46.3139
10.3736 44.0706
10.3870 42.0122
10.4004 40.1197
10.4132 38.4493
10.4260 36.8997
10.4389 35.4594
10.4517 34.1190
10.4645 32.8675
10.4773 31.6979
10.4901 30.6031
10.5029 29.5775
10.5158 28.6138
10.5286 27.7078
10.5414 26.8549
10.5542 26.0517
10.5670 25.2930
10.5798 24.5769
10.5927 23.8989
10.6055 23.2575
10.6189 22.6210
10.6323 22.0185
10.6592 20.9064
10.6861 19.9043
10.7129 18.9983
10.7398 18.1757
10.7666 17.4270
10.7935 16.7430
10.8203 16.1168
10.8374 15.7453
10.8545 15.3931
10.8887 14.7413
10.9229 14.1522
10.9570 13.6180
10.9912 13.1318
11.0254 12.6879
11.0596 12.2813
11.0938 11.9079
11.1206 11.6353
11.1475 11.3795
11.1743 11.1392
11.2012 10.9132
11.2280 10.7002
11.2549 10.4993
11.2818 10.3096
11.3086 10.1303
11.3355 9.96047
11.3623 9.79965
11.4160 9.50225
11.4697 9.23367
11.5234 8.99024
11.5772 8.76883
11.6309 8.56687
11.6846 8.38207
11.7383 8.21250
11.7920 8.05649
11.8457 7.91262
11.8994 7.77963
11.9531 7.65648
12.0215 7.51255
12.0899 7.38121
12.1582 7.26077
12.2266 7.15006
12.2949 7.04812
12.3633 6.95404
12.4317 6.86700
12.5000 6.78632
12.5537 6.72694
12.6074 6.67083
12.6611 6.61773
12.7149 6.56743
12.7686 6.51972
12.8223 6.47442
12.9297 6.39040
13.0371 6.31420
13.1445 6.24483
13.2520 6.18146
13.3594 6.12338
13.4863 6.06075
13.6133 6.00382
13.7402 5.95189
13.8672 5.90434
13.9942 5.86071
14.1211 5.82065
14.2481 5.78349
14.3750 5.74901
14.5313 5.70991
14.6875 5.67406
14.8438 5.64109
15.0000 5.61065
15.1074 5.59106
15.2149 5.57245
15.3223 5.55475
15.4297 5.53790
15.6445 5.50651
15.8594 5.47785
16.0742 5.45156
16.2891 5.42736
16.5039 5.40500
16.7188 5.38425
16.9141 5.36665
17.1094 5.35012
17.3047 5.33456
17.5000 5.31992
17.8125 5.29810
18.1250 5.27798
18.4375 5.25941
18.7500 5.24217
19.0625 5.22611
19.3750 5.21109
19.6875 5.19699
20.0000 5.18370
20.2930 5.17191
20.5859 5.16080
20.8789 5.15011
21.1719 5.13997
21.4649 5.13018
21.7578 5.12085
22.3438 5.10323
22.9297 5.08690
23.5156 5.07165
24.1016 5.05732
24.6875 5.04379
25.3906 5.02853
26.0938 5.01412
26.7969 5.00051
27.5000 4.98757
28.4375 4.97124
29.3750 4.95582
30.3125 4.94119
31.2500 4.92726
32.1875 4.91394
33.1250 4.90116
34.0625 4.88888
35.0000 4.87705
35.9375 4.86561
36.8750 4.85454
37.8125 4.84381
38.7500 4.83340
39.6875 4.82327
40.6250 4.81342
42.5000 4.79445
44.3750 4.77635
46.2500 4.75905
48.1250 4.74245
50.0000 4.72648
51.5625 4.71363
53.1250 4.70115
54.6875 4.68901
56.2500 4.67721
57.8125 4.66572
59.3750 4.65451
60.9375 4.64357
62.5000 4.63290
65.6250 4.61226
68.7500 4.59249
71.8750 4.57350
75.0000 4.55524
78.1250 4.53763
81.2500 4.52061
84.3750 4.50414
87.5000 4.48817
90.6250 4.47265
93.7500 4.45756
96.8750 4.44285
100.000 4.42849
103.125 4.41446
106.250 4.40073
109.375 4.38727
112.500 4.37405
115.625 4.36106
118.750 4.34827
121.875 4.33566
125.000 4.32321
128.125 4.31090
131.250 4.29871
134.375 4.28662
137.500 4.27462
140.625 4.26267
143.750 4.25077
146.875 4.23889
150.000 4.22702
153.125 4.21512
156.250 4.20319
160.938 4.18515
165.625 4.16689
170.313 4.14828
175.000 4.12925
178.125 4.11624
181.250 4.10291
184.375 4.08922
187.500 4.07511
190.625 4.06049
193.750 4.04528
195.313 4.03743
196.875 4.02937
198.438 4.02111
200.000 4.01261
202.028 4.00120
204.055 3.98932
206.083 3.97691
208.111 3.96385
209.125 3.95708
210.139 3.95008
211.152 3.94292
212.166 3.93552
213.180 3.92786
214.194 3.91998
215.208 3.91182
216.222 3.90337
217.284 3.89414
218.346 3.88451
219.408 3.87444
220.470 3.86390
221.532 3.85283
222.594 3.84117
223.656 3.82886
224.719 3.81583
225.588 3.80455
226.457 3.79267
227.326 3.78013
228.195 3.76685
229.064 3.75273
229.498 3.74534
229.933 3.73771
230.367 3.72985
230.802 3.72169
231.236 3.71323
231.671 3.70446
232.202 3.69329
232.733 3.68159
233.264 3.66930
233.795 3.65639
234.326 3.64280
234.857 3.62845
235.388 3.61329
235.919 3.59724
236.402 3.58179
236.885 3.56546
237.126 3.55693
237.368 3.54815
237.609 3.53911
237.850 3.52979
238.092 3.52018
238.333 3.51025
238.575 3.50001
238.816 3.48944
239.057 3.47851
239.299 3.46723
239.540 3.45556
239.781 3.44348
240.047 3.42968
240.313 3.41533
240.578 3.40039
240.844 3.38485
241.109 3.36866
241.375 3.35180
241.640 3.33423
241.906 3.31591
242.171 3.29681
242.304 3.28696
242.437 3.27691
242.570 3.26664
242.702 3.25617
242.835 3.24549
242.968 3.23459
243.101 3.22348
243.233 3.21215
243.366 3.20062
243.499 3.18889
243.632 3.17695
243.764 3.16483
243.897 3.15252
244.030 3.14007
244.175 3.12631
244.320 3.11242
244.465 3.09844
244.609 3.08444
244.754 3.07046
244.899 3.05663
245.044 3.04306
245.189 3.02988
245.321 3.01830
245.454 3.00740
245.587 2.99741
245.720 2.98860
245.786 2.98475
245.853 2.98133
245.919 2.97841
245.985 2.97606
246.052 2.97434
246.118 2.97334
246.184 2.97316
246.251 2.97391
246.353 2.97717
246.456 2.98349
246.559 2.99351
246.610 3.00017
246.661 3.00807
246.712 3.01736
246.764 3.02819
246.815 3.04071
246.866 3.05514
246.918 3.07167
246.969 3.09056
247.020 3.11207
247.072 3.13652
247.138 3.17312
247.204 3.21615
247.271 3.26667
247.337 3.32590
247.403 3.39556
247.470 3.47752
247.503 3.52382
247.536 3.57413
247.569 3.62883
247.603 3.68817
247.636 3.75301
247.669 3.82374
247.702 3.90102
247.735 3.98555
247.769 4.07822
247.802 4.17999
247.835 4.29204
247.868 4.41575
247.901 4.55277
247.935 4.70510
247.968 4.87515
248.001 5.06593
248.034 5.28114
248.067 5.52544
248.101 5.80466
248.134 6.12518
248.152 6.32262
248.170 6.53617
248.188 6.76894
248.206 7.02331
248.224 7.30196
248.242 7.60796
248.260 7.94478
248.279 8.31637
248.297 8.72721
248.315 9.18236
248.333 9.68751
248.342 9.96236
248.351 10.2491
248.360 10.5550
248.369 10.8743
248.378 11.2152
248.387 11.5712
248.396 11.9515
248.405 12.3489
248.414 12.7735
248.423 13.2173
248.432 13.6916
248.441 14.1876
248.451 14.7177
248.460 15.2721
248.469 15.8647
248.478 16.4843
248.487 17.1466
248.496 17.8391
248.505 18.5792
248.514 19.3528
248.523 20.1793
248.532 21.0429
248.541 21.9653
248.550 22.9286
248.559 23.9570
248.568 25.0306
248.578 26.2796
248.588 27.5899
248.598 28.9775
248.607 30.4465
248.617 32.0007
248.627 33.6445
248.637 35.3820
248.647 37.2177
248.655 38.8524
248.663 40.5635
248.672 42.3538
248.680 44.2261
248.688 46.1833
248.696 48.2283
248.705 50.3639
248.713 52.5659
248.721 54.9192
248.730 57.3448
248.738 59.8728
248.746 62.5063
248.755 65.2483
248.763 68.1015
248.771 71.0688
248.779 74.1531
248.788 77.3572
248.796 80.6837
248.804 84.1352
248.813 87.7143
248.829 95.2651
248.846 103.304
248.862 111.944
248.879 121.152
248.896 130.938
248.912 141.311
248.929 152.274
248.945 163.827
248.962 175.966
248.979 188.681
248.995 201.958
249.012 215.778
249.028 230.114
249.045 244.846
249.061 260.115
249.078 275.791
249.111 308.162
249.145 341.601
249.178 375.361
249.211 408.821
249.244 441.412
249.277 472.609
249.310 501.402
249.333 519.395
249.356 535.699
249.389 556.270
249.405 564.957
249.422 572.476
249.441 579.716
249.461 585.200
249.480 588.979
249.500 590.882
249.504 591.041
249.517 591.027
249.530 590.217
249.555 586.229
249.574 581.449
249.592 575.157
249.610 567.665
249.627 558.906
249.656 541.880
249.685 521.962
249.720 494.125
249.755 463.371
249.791 430.372
249.826 396.059
249.893 329.881
249.927 297.706
249.961 266.787
249.978 251.141
249.996 236.085
250.014 221.486
250.031 207.542
250.049 194.119
250.066 181.386
250.084 169.279
250.102 157.803
250.124 144.052
250.135 137.589
250.147 131.377
250.158 125.413
250.169 119.695
250.180 114.217
250.191 108.974
250.203 103.920
250.214 99.1367
250.225 94.5736
250.236 90.2245
250.247 86.0833
250.259 82.1435
250.270 78.3986
250.281 74.8419
250.299 69.5883
250.316 64.7870
250.334 60.3808
250.352 56.3435
250.369 52.6296
250.387 49.2559
250.404 46.1765
250.422 43.3683
250.440 40.7955
250.457 38.4663
250.475 36.3458
250.493 34.4157
250.510 32.6492
250.528 31.0503
250.545 29.5938
250.563 28.2661
250.581 27.0482
250.598 25.9424
250.616 24.9312
250.634 24.0049
250.651 23.1506
250.669 22.3700
250.686 21.6513
250.704 20.9881
250.722 20.3715
250.739 19.8033
250.757 19.2756
250.775 18.7842
250.792 18.3231
250.810 17.8944
250.827 17.4924
250.845 17.1147
250.877 16.4812
250.909 15.9113
250.941 15.3921
250.973 14.9194
251.005 14.4840
251.037 14.0837
251.069 13.7118
251.101 13.3671
251.134 13.0447
251.166 12.7441
251.198 12.4613
251.230 12.1964
251.262 11.9461
251.294 11.7107
251.326 11.4875
251.358 11.2767
251.393 11.0569
251.428 10.8493
251.464 10.6528
251.499 10.4671
251.534 10.2904
251.569 10.1230
251.605 9.96330
251.640 9.81163
251.710 9.52859
251.781 9.27026
251.851 9.03359
251.922 8.81604
251.967 8.68643
252.012 8.56320
252.057 8.44589
252.101 8.33434
252.191 8.12606
252.281 7.93576
252.371 7.76107
252.460 7.60053
252.550 7.45235
252.640 7.31519
252.710 7.21422
252.781 7.11899
252.851 7.02891
252.922 6.94359
252.992 6.86266
253.063 6.78581
253.133 6.71274
253.204 6.64319
253.274 6.57682
253.345 6.51360
253.415 6.45324
253.486 6.39555
253.627 6.28750
253.768 6.18827
253.909 6.09683
254.050 6.01232
254.191 5.93399
254.332 5.86121
254.473 5.79340
254.614 5.73009
254.755 5.67087
254.896 5.61535
255.024 5.56780
255.152 5.52281
255.281 5.48017
255.409 5.43970
255.537 5.40123
255.665 5.36461
255.793 5.32973
255.922 5.29646
256.050 5.26470
256.178 5.23435
256.306 5.20532
256.434 5.17752
256.691 5.12533
256.947 5.07724
257.088 5.05234
257.229 5.02849
257.511 4.98362
257.793 4.94216
258.075 4.90374
258.357 4.86802
258.639 4.83475
258.921 4.80366
259.203 4.77454
259.396 4.75572
259.588 4.73768
259.780 4.72037
259.972 4.70374
260.357 4.67240
260.742 4.64338
261.126 4.61637
261.511 4.59114
261.895 4.56753
262.280 4.54541
262.562 4.53003
262.844 4.51532
263.126 4.50122
263.408 4.48772
263.690 4.47475
263.972 4.46229
264.536 4.43877
265.100 4.41692
265.664 4.39658
266.228 4.37755
266.792 4.35972
267.510 4.33854
268.228 4.31888
268.946 4.30055
269.664 4.28341
270.382 4.26737
271.100 4.25221
271.817 4.23788
272.535 4.22430
273.099 4.21411
273.663 4.20432
274.791 4.18577
275.920 4.16847
277.048 4.15224
278.176 4.13695
279.304 4.12249
280.432 4.10874
281.560 4.09563
282.534 4.08477
283.509 4.07429
285.457 4.05436
287.406 4.03551
289.354 4.01762
291.303 4.00051
293.251 3.98403
295.200 3.96808
297.148 3.95258
298.994 3.93825
300.840 3.92418
302.686 3.91033
304.532 3.89665
308.224 3.86968
311.916 3.84296
314.172 3.82667
316.429 3.81035
318.685 3.79398
320.941 3.77747
325.453 3.74400
327.710 3.72695
329.966 3.70962
332.222 3.69206
334.478 3.67417
338.990 3.63723
341.247 3.61820
343.503 3.59859
348.015 3.55806
351.912 3.52109
355.809 3.48213
357.758 3.46198
359.706 3.44099
361.655 3.41960
363.603 3.39741
367.501 3.35104
371.398 3.30135
375.295 3.24815
377.243 3.22002
379.192 3.19078
381.448 3.15542
383.704 3.11839
385.960 3.07953
388.216 3.03864
390.473 2.99565
392.729 2.95026
394.985 2.90232
397.241 2.85165
399.497 2.79784
400.626 2.76977
401.754 2.74076
402.882 2.71083
404.010 2.68001
405.138 2.64814
406.266 2.61517
407.394 2.58118
408.522 2.54601
409.650 2.50952
410.778 2.47185
411.907 2.43284
413.035 2.39229
414.163 2.35032
415.291 2.30693
416.419 2.26181
417.547 2.21486
418.675 2.16608
419.803 2.11535
420.931 2.06260
422.059 2.00770
423.188 1.95055
424.316 1.89105
425.444 1.82908
426.572 1.76453
427.700 1.69731
428.828 1.62733
429.956 1.55451
430.520 1.51701
431.084 1.47880
431.648 1.43986
432.212 1.40021
432.776 1.35984
433.340 1.31879
434.161 1.25787
434.981 1.19563
435.802 1.13220
436.622 1.06781
437.443 1.00271
437.853 0.970015
438.263 0.937294
438.673 0.904619
439.083 0.872073
439.494 0.839751
439.904 0.807763
440.417 0.768436
440.929 0.730119
441.442 0.693163
441.955 0.657994
442.468 0.625105
442.980 0.595103
443.237 0.581395
443.493 0.568684
443.750 0.557092
444.006 0.546769
444.288 0.537047
444.570 0.529248
444.711 0.526138
444.852 0.523597
444.993 0.521657
445.134 0.520353
445.275 0.519724
445.416 0.519809
445.557 0.520650
445.698 0.522290
445.839 0.524776
445.980 0.528159
446.121 0.532492
446.262 0.537832
446.422 0.545208
446.503 0.549448
446.583 0.554065
446.663 0.559086
446.743 0.564510
446.823 0.570358
446.903 0.576645
446.977 0.582830
447.051 0.589410
447.131 0.597035
447.211 0.605150
447.285 0.613072
447.358 0.621443
447.432 0.630280
447.506 0.639594
447.579 0.649403
447.653 0.659722
447.800 0.681953
447.942 0.705331
448.083 0.730872
448.224 0.758729
448.365 0.789051
448.506 0.821996
448.647 0.857734
448.788 0.896447
448.929 0.938330
448.999 0.960558
449.070 0.983627
449.140 1.00760
449.211 1.03250
449.281 1.05836
449.352 1.08521
449.422 1.11310
449.493 1.14204
449.563 1.17212
449.634 1.20329
449.704 1.23564
449.775 1.26920
449.845 1.30401
449.916 1.34012
449.986 1.37757
450.057 1.41641
450.127 1.45669
450.198 1.49845
450.268 1.54176
450.339 1.58665
450.409 1.63320
450.480 1.68147
450.550 1.73150
450.621 1.78337
450.691 1.83715
450.762 1.89290
450.832 1.95069
450.903 2.01061
450.973 2.07273
451.044 2.13713
451.114 2.20391
451.185 2.27315
451.255 2.34504
451.326 2.41949
451.467 2.57677
451.608 2.74596
451.749 2.92803
451.890 3.12403
452.031 3.33513
452.172 3.56260
452.313 3.80784
452.454 4.07261
452.595 4.35824
452.736 4.66680
452.877 5.00040
453.018 5.36137
453.159 5.75232
453.300 6.17614
453.441 6.63608
453.582 7.13613
453.723 7.67968
453.864 8.27165
453.935 8.58739
454.005 8.91723
454.076 9.26194
454.146 9.62230
454.217 9.99919
454.287 10.3935
454.358 10.8063
454.428 11.2385
454.499 11.6912
454.569 12.1658
454.640 12.6634
454.710 13.1855
454.781 13.7335
454.851 14.3089
454.922 14.9136
454.992 15.5494
455.063 16.2181
455.133 16.9220
455.204 17.6634
455.274 18.4448
455.345 19.2688
455.415 20.1384
455.486 21.0568
455.556 22.0274
455.627 23.0539
455.697 24.1405
455.761 25.1843
455.825 26.2851
455.889 27.4468
455.953 28.6737
456.018 29.9705
456.082 31.3424
456.146 32.7948
456.210 34.3339
456.274 35.9663
456.338 37.6995
456.402 39.5415
456.466 41.5012
456.530 43.5885
456.594 45.8141
456.659 48.1902
456.723 50.7302
456.793 53.7351
456.864 56.9743
456.934 60.4772
457.005 64.2721
457.075 68.3917
457.146 72.8729
457.216 77.7584
457.287 83.0972
457.357 88.9461
457.428 95.3712
457.498 102.450
457.569 110.272
457.604 114.501
457.639 118.945
457.675 123.646
457.710 128.595
457.745 133.841
457.780 139.375
457.816 145.252
457.851 151.465
457.886 158.077
457.921 165.083
457.957 172.557
457.992 180.495
458.027 188.982
458.062 198.018
458.098 207.705
458.133 218.043
458.168 229.153
458.203 241.038
458.239 253.842
458.274 267.573
458.309 282.398
458.344 298.330
458.380 315.566
458.415 334.123
458.439 347.680
458.463 361.917
458.487 376.997
458.511 392.841
458.535 409.629
458.559 427.272
458.583 445.889
458.607 465.532
458.631 486.347
458.655 508.216
458.679 531.380
458.703 555.706
458.727 581.454
458.751 608.472
458.775 636.923
458.799 666.863
458.835 713.730
458.870 763.971
458.905 818.035
458.940 875.760
458.976 937.595
459.011 1003.28
459.046 1073.26
459.081 1147.15
459.117 1225.34
459.152 1307.31
459.187 1393.40
459.222 1482.91
459.293 1672.08
459.363 1871.84
459.504 2284.86
459.575 2487.02
459.645 2677.19
459.686 2780.64
459.727 2875.99
459.769 2962.38
459.810 3038.14
459.851 3102.52
459.892 3154.25
459.934 3192.72
459.975 3217.37
460.000 3225.50
460.026 3228.24
460.067 3221.05
460.108 3199.70
460.150 3164.49
460.191 3116.22
460.232 3055.48
460.274 2983.57
460.315 2901.49
460.356 2810.52
460.413 2674.58
460.469 2528.35
460.581 2218.13
460.688 1921.55
460.741 1777.95
460.794 1640.04
460.847 1508.59
460.900 1384.79
460.953 1269.25
460.980 1214.68
461.007 1162.47
461.033 1112.23
461.060 1064.13
461.086 1018.17
461.113 974.451
461.139 932.617
461.166 892.783
461.193 854.891
461.219 819.013
461.246 784.812
461.272 752.358
461.299 721.580
461.325 692.513
461.352 664.866
461.379 638.678
461.405 613.878
461.432 590.482
461.458 568.243
461.485 547.185
461.512 527.243
461.538 508.424
461.565 490.525
461.591 473.562
461.618 457.479
461.644 442.281
461.673 426.482
461.702 411.603
461.731 397.534
461.760 384.219
461.789 371.611
461.818 359.662
461.876 337.571
461.934 317.636
461.992 299.588
462.050 283.196
462.108 268.261
462.162 255.695
462.215 244.097
462.268 233.366
462.321 223.432
462.374 214.182
462.427 205.583
462.481 197.544
462.534 190.043
462.587 183.004
462.640 176.402
462.693 170.199
462.746 164.372
462.800 158.872
462.853 153.691
462.906 148.787
462.959 144.156
463.012 139.761
463.065 135.594
463.172 127.888
463.278 120.916
463.384 114.584
463.491 108.808
463.597 103.532
463.703 98.6929
463.810 94.2429
463.887 91.2229
463.964 88.3757
464.042 85.6811
464.119 83.1343
464.196 80.7182
464.274 78.4293
464.351 76.2557
464.428 74.1893
464.583 70.3476
464.738 66.8578
464.892 63.6724
465.047 60.7592
465.153 58.8949
465.260 57.1366
465.366 55.4731
465.472 53.9002
465.579 52.4085
465.685 50.9949
465.791 49.6525
465.898 48.3764
466.110 46.0045
466.323 43.8497
466.536 41.8833
466.748 40.0846
466.961 38.4327
467.174 36.9119
467.386 35.5081
467.599 34.2097
467.812 33.0048
468.024 31.8853
468.237 30.8422
468.450 29.8691
468.662 28.9584
468.875 28.1046
469.088 27.3027
469.300 26.5487
469.513 25.8382
469.726 25.1683
469.938 24.5353
470.151 23.9369
470.364 23.3700
470.576 22.8329
470.789 22.3227
471.001 21.8382
471.214 21.3770
471.427 20.9381
471.639 20.5194
471.852 20.1201
472.277 19.3740
472.703 18.6911
473.128 18.0639
473.553 17.4862
473.979 16.9525
474.404 16.4581
474.829 15.9991
475.254 15.5718
475.564 15.2792
475.873 15.0008
476.182 14.7356
476.492 14.4827
476.801 14.2415
477.110 14.0113
477.729 13.5802
478.348 13.1835
478.966 12.8181
479.585 12.4807
480.204 12.1682
480.629 11.9664
481.054 11.7745
481.480 11.5917
481.905 11.4174
482.330 11.2510
482.756 11.0921
483.181 10.9401
483.606 10.7946
484.457 10.5216
485.307 10.2702
486.158 10.0381
487.009 9.82309
487.859 9.62341
488.710 9.43755
489.561 9.26410
490.411 9.10190
491.262 8.94988
492.113 8.80717
492.963 8.67293
493.814 8.54682
494.587 8.43846
495.360 8.33499
496.134 8.23657
496.907 8.14292
497.680 8.05351
498.454 7.96828
499.227 7.88683
500.000 7.80877
501.343 7.68120
502.686 7.56274
504.028 7.45237
505.371 7.34929
506.714 7.25280
508.057 7.16231
509.400 7.07726
510.742 6.99719
511.902 6.93171
513.062 6.86940
514.221 6.81045
515.381 6.75369
516.541 6.69972
517.700 6.64773
518.860 6.59835
520.020 6.55082
521.179 6.50528
522.339 6.46172
523.499 6.41963
524.658 6.37946
526.978 6.30329
529.297 6.23263
531.983 6.15706
534.668 6.08718
537.354 6.02248
540.039 5.96248
542.725 5.90651
545.410 5.85433
548.096 5.80550
550.781 5.75966
553.711 5.71288
556.641 5.66900
559.570 5.62788
562.500 5.58914
565.430 5.55271
568.360 5.51826
571.289 5.48593
574.219 5.45497
579.590 5.40266
582.276 5.37805
584.961 5.35476
590.332 5.31088
595.703 5.27070
601.074 5.23344
606.445 5.19908
611.817 5.16716
617.188 5.13734
625.000 5.09754
630.371 5.07235
635.742 5.04863
641.113 5.02630
646.484 5.00530
657.227 4.96661
667.969 4.93185
677.246 4.90458
686.524 4.87951
695.801 4.85629
705.078 4.83486
714.356 4.81491
723.633 4.79627
732.910 4.77883
742.188 4.76247
750.000 4.74951
771.484 4.71707
792.969 4.68857
814.453 4.66329
835.938 4.64071
855.469 4.62219
875.000 4.60524
906.250 4.58100
937.500 4.55964
968.750 4.54067
1000.00 4.52366
1042.97 4.50295
1085.94 4.48472
1128.91 4.46851
1171.88 4.45397
1234.38 4.43524
1250.00 4.43093
1296.88 4.41878
1343.75 4.40761
1421.88 4.39079
1500.00 4.37558
1609.38 4.35618
1664.06 4.34691
1718.75 4.33773
1750.00 4.33245
1835.94 4.31737
1878.91 4.30924
1921.88 4.30044
1960.94 4.29155
2000.00 4.28152
2023.37 4.27472
2046.73 4.26715
2070.10 4.25860
2093.46 4.24878
2107.74 4.24194
2122.02 4.23433
2136.29 4.22578
2150.57 4.21606
2160.96 4.20809
2179.13 4.19178
2188.21 4.18223
2197.30 4.17151
2205.09 4.16118
2212.88 4.14958
2220.02 4.13761
2227.16 4.12410
2234.29 4.10874
2241.43 4.09107
2247.60 4.07353
2253.77 4.05335
2259.93 4.02989
2266.10 4.00230
2273.24 3.96342
2276.81 3.94040
2280.37 3.91435
2283.94 3.88464
2287.51 3.85043
2291.08 3.81059
2294.65 3.76362
2296.76 3.73171
2298.87 3.69607
2300.98 3.65588
2303.09 3.61029
2304.87 3.56663
2306.66 3.51737
2308.44 3.46137
2310.23 3.39717
2311.77 3.33359
2313.31 3.26085
2314.85 3.17677
2315.62 3.12967
2316.39 3.07867
2317.29 3.01388
2318.18 2.94222
2319.07 2.86249
2319.96 2.77333
2320.86 2.67293
2321.30 2.61799
2321.75 2.55946
2322.20 2.49688
2322.64 2.43017
2323.09 2.35880
2323.53 2.28239
2323.86 2.22328
2324.18 2.16130
2324.51 2.09591
2324.83 2.02739
2325.16 1.95523
2325.48 1.87984
2325.81 1.80086
2326.13 1.71907
2326.35 1.66106
2326.58 1.60249
2326.80 1.54364
2327.02 1.48532
2327.25 1.42873
2327.47 1.37579
2327.69 1.32959
2327.80 1.31043
2327.91 1.29529
2328.01 1.28613
2328.11 1.28189
2328.20 1.28383
2328.30 1.29361
2328.40 1.31364
2328.49 1.34631
2328.59 1.39530
2328.69 1.46511
2328.73 1.51055
2328.78 1.56260
2328.83 1.62306
2328.88 1.69299
2328.93 1.77357
2328.97 1.86610
2329.02 1.97204
2329.07 2.09301
2329.12 2.23385
2329.17 2.39083
2329.22 2.56881
2329.26 2.77017
2329.31 2.99752
2329.36 3.25371
2329.41 3.54183
2329.46 3.86524
2329.51 4.24357
2329.55 4.65956
2329.58 4.89050
2329.60 5.13489
2329.63 5.39338
2329.65 5.65542
2329.68 5.94351
2329.70 6.24775
2329.73 6.56888
2329.75 6.89374
2329.78 7.25016
2329.80 7.62576
2329.83 8.02136
2329.85 8.42071
2329.88 8.96619
2329.91 9.52733
2329.95 10.1842
2329.98 10.8847
2330.01 11.6310
2330.04 12.4251
2330.09 13.5355
2330.13 14.7359
2330.17 16.0314
2330.22 17.4270
2330.26 18.9278
2330.30 20.5386
2330.35 22.2643
2330.39 24.1096
2330.42 25.3777
2330.44 26.6996
2330.47 28.0764
2330.50 29.5093
2330.53 30.9994
2330.56 32.5474
2330.61 35.7605
2330.67 39.2715
2330.72 43.0286
2330.78 47.0345
2330.83 51.2119
2330.88 54.7266
2330.92 58.3079
2330.96 62.0318
2331.01 65.8949
2331.05 69.9874
2331.09 74.1180
2331.18 82.7415
2331.24 88.5921
2331.29 94.4954
2331.40 106.787
2331.63 132.184
2331.74 144.735
2331.85 156.733
2331.92 163.412
2331.98 169.719
2332.04 174.731
2332.09 179.313
2332.15 183.596
2332.20 187.395
2332.26 190.989
2332.32 194.009
2332.40 197.224
2332.48 199.404
2332.50 199.895
2332.51 200.107
2332.56 200.602
2332.60 200.775
2332.68 200.205
2332.76 198.653
2332.83 196.185
2332.91 192.732
2332.99 188.406
2333.06 183.280
2333.14 177.438
2333.21 171.843
2333.27 165.930
2333.41 153.063
2333.56 137.148
2333.72 120.878
2333.80 112.103
2333.88 103.522
2333.97 95.2183
2334.05 87.2608
2334.11 82.1761
2334.16 77.2830
2334.22 72.5921
2334.28 68.1114
2334.33 63.8466
2334.39 59.8010
2334.44 55.9761
2334.50 52.3715
2334.50 12.2146
2500.00 11.9368
2625.00 11.7461
2750.00 11.5680
2875.00 11.4009
3000.00 11.2438
3250.00 10.9613
3500.00 10.7075
3750.00 10.4824
4000.00 10.2771
4250.00 10.0941
4500.00 9.92522
4750.00 9.76862
5000.00 9.62283
5250.00 9.49176
5500.00 9.36876
6000.00 9.14376
6500.00 8.94973
7000.00 8.77439
7500.00 8.62032
8000.00 8.47904
8500.00 8.35490
9000.00 8.23976
10000.0 8.03227
10625.0 7.92326
11250.0 7.82203
12500.0 7.63927
13750.0 7.48873
15000.0 7.35427
16000.0 7.26165
17000.0 7.17587
18500.0 7.06455
20000.0 6.96369
22500.0 6.82578
25000.0 6.70523
27500.0 6.60738
30000.0 6.51964
32500.0 6.44604
35000.0 6.37890
37500.0 6.32118
40000.0 6.26787
45000.0 6.17969
50000.0 6.10245
55000.0 6.03981
60000.0 5.98356
65000.0 5.93605
70000.0 5.89271
75000.0 5.85493
80000.0 5.82000
90000.0 5.76059
99999.9 5.70841
100000 5.70397
112500 5.67889
125000 5.65688
137500 5.63731
150000 5.61971
175000 5.62092
200000 5.62218
250000 5.66579
300000 5.73109
391713 5.87585
392972 5.87809
394231 5.88033
396750 5.88479
399268 5.88924
401786 5.89368
406823 5.90252
411859 5.91130
416896 5.92002
421932 5.92870
432006 5.94588
442079 5.96285
452152 5.97961
462225 5.99615
472298 6.01249
486149 6.03380
500000 6.05475
525000 6.09656
550000 6.13648
575000 6.17468
600000 6.21130
625000 6.24646
650000 6.28029
675000 6.31288
700000 6.34431
725000 6.37382
750000 6.40237
775000 6.43004
800000 6.45688
821737 6.47713
843475 6.49689
865212 6.51619
886949 6.53503
890212 6.53754
893475 6.54006
900000 6.54516
912362 6.55393
924723 6.56261
937085 6.57118
949446 6.57965
952606 6.58152
955765 6.58339
962085 6.58710
968404 6.59078
974723 6.59445
987362 6.60172
1.00000E+06 6.60891
1.01563E+06 6.61295
1.03125E+06 6.61694
1.04688E+06 6.62088
1.06250E+06 6.62477
1.07813E+06 6.62862
1.09375E+06 6.63243
1.10938E+06 6.63619
1.12500E+06 6.63991
1.14063E+06 6.64359
1.15625E+06 6.64723
1.17188E+06 6.65083
1.18750E+06 6.65439
1.20313E+06 6.65792
1.21875E+06 6.66140
1.23438E+06 6.66485
1.25000E+06 6.66827
1.27008E+06 6.66626
1.29016E+06 6.66432
1.29017E+06 6.66432
1.29871E+06 6.66349
1.30725E+06 6.66267
1.31579E+06 6.66186
1.32433E+06 6.66106
1.32795E+06 6.66045
1.32796E+06 6.66045
1.33064E+06 6.65951
1.33333E+06 6.65857
1.33870E+06 6.65671
1.34408E+06 6.65486
1.34946E+06 6.65302
1.35483E+06 6.65120
1.36021E+06 6.64939
1.36559E+06 6.64760
1.37096E+06 6.64581
1.37634E+06 6.64405
1.38172E+06 6.64229
1.38709E+06 6.64055
1.39247E+06 6.63882
1.39785E+06 6.63711
1.40322E+06 6.63541
1.40860E+06 6.63372
1.41398E+06 6.63204
1.41935E+06 6.63038
1.42473E+06 6.62872
1.43011E+06 6.62708
1.43548E+06 6.62546
1.44086E+06 6.62384
1.44624E+06 6.62224
1.45161E+06 6.62064
1.45699E+06 6.61906
1.46237E+06 6.61749
1.46774E+06 6.61594
1.47312E+06 6.61439
1.47849E+06 6.61285
1.48387E+06 6.61133
1.48925E+06 6.60981
1.49462E+06 6.60831
1.50000E+06 6.60682
1.50032E+06 6.60668
1.50033E+06 6.60667
1.50494E+06 6.60404
1.50956E+06 6.60141
1.51878E+06 6.59621
1.52801E+06 6.59105
1.53724E+06 6.58595
1.54647E+06 6.58089
1.55570E+06 6.57589
1.56493E+06 6.57093
1.57416E+06 6.56602
1.58339E+06 6.56116
1.59262E+06 6.55635
1.60185E+06 6.55158
1.61108E+06 6.54686
1.62031E+06 6.54218
1.62954E+06 6.53755
1.63877E+06 6.53296
1.64800E+06 6.52842
1.65348E+06 6.52488
1.65896E+06 6.52136
1.66444E+06 6.51787
1.66993E+06 6.51439
1.67541E+06 6.51094
1.68089E+06 6.50750
1.68637E+06 6.50408
1.69185E+06 6.50068
1.69549E+06 6.49814
1.69912E+06 6.49562
1.70639E+06 6.49060
1.71366E+06 6.48561
1.72093E+06 6.48067
1.72819E+06 6.47577
1.73546E+06 6.47091
1.74273E+06 6.46609
1.75000E+06 6.46130
1.75603E+06 6.45699
1.76205E+06 6.45270
1.76808E+06 6.44844
1.77410E+06 6.44421
1.77410E+06 6.44421
1.77861E+06 6.44053
1.78312E+06 6.43687
1.79214E+06 6.42960
1.80117E+06 6.42239
1.81019E+06 6.41525
1.81921E+06 6.40817
1.82823E+06 6.40116
1.83725E+06 6.39422
1.84628E+06 6.38733
1.85530E+06 6.38051
1.86432E+06 6.37375
1.87334E+06 6.36705
1.88236E+06 6.36041
1.89139E+06 6.35383
1.90041E+06 6.34731
1.90943E+06 6.34084
1.91845E+06 6.33443
1.92355E+06 6.33013
1.92864E+06 6.32584
1.93374E+06 6.32158
1.93884E+06 6.31734
1.94394E+06 6.31312
1.94903E+06 6.30891
1.95413E+06 6.30473
1.95923E+06 6.30057
1.96432E+06 6.29643
1.96942E+06 6.29231
1.97452E+06 6.28820
1.97961E+06 6.28412
1.98471E+06 6.28006
1.98981E+06 6.27601
1.99490E+06 6.27199
2.00000E+06 6.26798
2.00995E+06 6.25935
2.01991E+06 6.25080
2.02986E+06 6.24233
2.03982E+06 6.23393
2.04977E+06 6.22562
2.05972E+06 6.21738
2.06968E+06 6.20922
2.07963E+06 6.20113
2.08440E+06 6.19675
2.08916E+06 6.19239
2.09869E+06 6.18373
2.10823E+06 6.17514
2.11776E+06 6.16663
2.12729E+06 6.15820
2.13682E+06 6.14983
2.14635E+06 6.14154
2.15589E+06 6.13332
2.16542E+06 6.12517
2.17495E+06 6.11709
2.18448E+06 6.10908
2.19401E+06 6.10114
2.20355E+06 6.09326
2.21308E+06 6.08545
2.22261E+06 6.07771
2.23214E+06 6.07003
2.23214E+06 6.07003
2.24051E+06 6.06234
2.24887E+06 6.05472
2.25724E+06 6.04715
2.26561E+06 6.03964
2.27397E+06 6.03219
2.28234E+06 6.02479
2.29070E+06 6.01745
2.29907E+06 6.01017
2.30744E+06 6.00294
2.31580E+06 5.99576
2.32417E+06 5.98864
2.33254E+06 5.98157
2.34090E+06 5.97455
2.34927E+06 5.96759
2.35763E+06 5.96068
2.36600E+06 5.95382
2.36601E+06 5.95381
2.37157E+06 5.94880
2.37714E+06 5.94383
2.38271E+06 5.93887
2.38828E+06 5.93394
2.39385E+06 5.92903
2.39942E+06 5.92414
2.40499E+06 5.91929
2.41056E+06 5.91445
2.41613E+06 5.90964
2.42169E+06 5.90485
2.42726E+06 5.90009
2.43283E+06 5.89535
2.43840E+06 5.89063
2.44397E+06 5.88594
2.44954E+06 5.88127
2.45511E+06 5.87663
2.45511E+06 5.87662
2.46023E+06 5.87218
2.46535E+06 5.86775
2.47558E+06 5.85895
2.48362E+06 5.85195
2.49166E+06 5.84500
2.49969E+06 5.83809
2.50773E+06 5.83124
2.50773E+06 5.83123
2.51542E+06 5.82337
2.52311E+06 5.81555
2.53081E+06 5.80778
2.53850E+06 5.80007
2.54619E+06 5.79240
2.55388E+06 5.78479
2.56157E+06 5.77723
2.56926E+06 5.76971
2.57696E+06 5.76225
2.58465E+06 5.75483
2.59234E+06 5.74746
2.60003E+06 5.74013
2.60772E+06 5.73286
2.61542E+06 5.72563
2.62311E+06 5.71844
2.63080E+06 5.71131
2.63849E+06 5.70422
2.64618E+06 5.69717
2.65387E+06 5.69017
2.66157E+06 5.68321
2.66926E+06 5.67629
2.67695E+06 5.66942
2.68464E+06 5.66259
2.69233E+06 5.65581
2.70002E+06 5.64907
2.70772E+06 5.64236
2.71541E+06 5.63570
2.72310E+06 5.62909
2.73079E+06 5.62251
2.73848E+06 5.61597
2.74617E+06 5.60948
2.75387E+06 5.60302
2.76156E+06 5.59660
2.76925E+06 5.59023
2.77694E+06 5.58389
2.78463E+06 5.57759
2.79232E+06 5.57132
2.80002E+06 5.56510
2.80771E+06 5.55891
2.81540E+06 5.55276
2.82309E+06 5.54665
2.83078E+06 5.54058
2.83848E+06 5.53454
2.84617E+06 5.52853
2.85386E+06 5.52257
2.86155E+06 5.51663
2.86924E+06 5.51074
2.87693E+06 5.50488
2.88463E+06 5.49905
2.89232E+06 5.49326
2.90001E+06 5.48750
2.90770E+06 5.48177
2.91539E+06 5.47608
2.92308E+06 5.47042
2.93078E+06 5.46480
2.93847E+06 5.45921
2.94616E+06 5.45365
2.95385E+06 5.44812
2.96154E+06 5.44263
2.96923E+06 5.43716
2.97693E+06 5.43173
2.98462E+06 5.42633
2.99231E+06 5.42096
3.00000E+06 5.41562
3.00781E+06 5.40752
3.01563E+06 5.39947
3.02344E+06 5.39146
3.03125E+06 5.38349
3.03906E+06 5.37558
3.04688E+06 5.36771
3.05469E+06 5.35988
3.06250E+06 5.35209
3.07031E+06 5.34435
3.07813E+06 5.33666
3.08594E+06 5.32901
3.09375E+06 5.32140
3.10156E+06 5.31383
3.10938E+06 5.30631
3.11719E+06 5.29883
3.12500E+06 5.29139
3.13281E+06 5.28399
3.14063E+06 5.27663
3.14844E+06 5.26932
3.15625E+06 5.26204
3.16406E+06 5.25480
3.17188E+06 5.24761
3.17969E+06 5.24045
3.18750E+06 5.23334
3.19531E+06 5.22626
3.20313E+06 5.21922
3.21094E+06 5.21222
3.21875E+06 5.20525
3.22656E+06 5.19833
3.23438E+06 5.19144
3.24219E+06 5.18459
3.25000E+06 5.17778
3.25781E+06 5.17100
3.26563E+06 5.16426
3.27344E+06 5.15755
3.28125E+06 5.15089
3.28906E+06 5.14425
3.29688E+06 5.13765
3.30469E+06 5.13109
3.31250E+06 5.12456
3.32031E+06 5.11807
3.32813E+06 5.11161
3.33594E+06 5.10519
3.34375E+06 5.09880
3.35156E+06 5.09244
3.35938E+06 5.08612
3.36719E+06 5.07982
3.37500E+06 5.07357
3.38281E+06 5.06734
3.39063E+06 5.06115
3.39844E+06 5.05499
3.40625E+06 5.04886
3.41406E+06 5.04276
3.42188E+06 5.03669
3.42969E+06 5.03066
3.43750E+06 5.02466
3.44531E+06 5.01868
3.45313E+06 5.01274
3.46094E+06 5.00683
3.46875E+06 5.00095
3.47656E+06 4.99510
3.48438E+06 4.98928
3.49219E+06 4.98348
3.50000E+06 4.97772
3.50781E+06 4.97199
3.51563E+06 4.96628
3.52344E+06 4.96061
3.53125E+06 4.95496
3.53906E+06 4.94934
3.54688E+06 4.94375
3.55469E+06 4.93818
3.56250E+06 4.93265
3.57031E+06 4.92714
3.57813E+06 4.92166
3.58594E+06 4.91621
3.59375E+06 4.91078
3.60156E+06 4.90538
3.60938E+06 4.90001
3.61719E+06 4.89466
3.62500E+06 4.88934
3.63281E+06 4.88405
3.64063E+06 4.87878
3.64844E+06 4.87354
3.65625E+06 4.86832
3.66406E+06 4.86313
3.67188E+06 4.85797
3.67969E+06 4.85282
3.68750E+06 4.84771
3.69531E+06 4.84262
3.70313E+06 4.83755
3.71094E+06 4.83251
3.71875E+06 4.82749
3.72656E+06 4.82250
3.73438E+06 4.81753
3.74219E+06 4.81258
3.75000E+06 4.80766
3.75781E+06 4.80276
3.76563E+06 4.79789
3.77344E+06 4.79303
3.78125E+06 4.78820
3.78906E+06 4.78340
3.79688E+06 4.77861
3.80469E+06 4.77385
3.81250E+06 4.76912
3.82031E+06 4.76440
3.82813E+06 4.75971
3.83594E+06 4.75503
3.84375E+06 4.75038
3.85156E+06 4.74576
3.85938E+06 4.74115
3.86719E+06 4.73656
3.87500E+06 4.73200
3.88281E+06 4.72746
3.89063E+06 4.72294
3.89844E+06 4.71844
3.90625E+06 4.71396
3.91406E+06 4.70950
3.92188E+06 4.70506
3.92969E+06 4.70064
3.93750E+06 4.69624
3.94531E+06 4.69187
3.95313E+06 4.68751
3.96094E+06 4.68317
3.96875E+06 4.67885
3.97656E+06 4.67455
3.98438E+06 4.67028
3.99219E+06 4.66602
4.00000E+06 4.66178
4.00781E+06 4.65706
4.01563E+06 4.65236
4.02344E+06 4.64769
4.03125E+06 4.64303
4.03906E+06 4.63838
4.04688E+06 4.63376
4.05469E+06 4.62915
4.06250E+06 4.62457
4.07031E+06 4.62000
4.07813E+06 4.61545
4.08594E+06 4.61091
4.09375E+06 4.60640
4.10156E+06 4.60190
4.10938E+06 4.59742
4.11719E+06 4.59296
4.12500E+06 4.58852
4.13281E+06 4.58409
4.14063E+06 4.57968
4.14844E+06 4.57528
4.15625E+06 4.57091
4.16406E+06 4.56654
4.17188E+06 4.56220
4.17969E+06 4.55787
4.18750E+06 4.55356
4.19531E+06 4.54927
4.20313E+06 4.54499
4.21094E+06 4.54073
4.21875E+06 4.53649
4.22656E+06 4.53226
4.23438E+06 4.52804
4.24219E+06 4.52385
4.25000E+06 4.51967
4.25781E+06 4.51550
4.26563E+06 4.51135
4.27344E+06 4.50722
4.28125E+06 4.50310
4.28906E+06 4.49899
4.29688E+06 4.49490
4.30469E+06 4.49083
4.31250E+06 4.48677
4.32031E+06 4.48273
4.32813E+06 4.47870
4.33594E+06 4.47469
4.34375E+06 4.47069
4.35156E+06 4.46670
4.35938E+06 4.46273
4.36719E+06 4.45878
4.37500E+06 4.45484
4.38281E+06 4.45091
4.39063E+06 4.44700
4.39844E+06 4.44310
4.40625E+06 4.43922
4.41406E+06 4.43535
4.42188E+06 4.43149
4.42969E+06 4.42765
4.43750E+06 4.42382
4.44531E+06 4.42000
4.45313E+06 4.41620
4.46094E+06 4.41241
4.46875E+06 4.40864
4.47656E+06 4.40488
4.48438E+06 4.40113
4.49219E+06 4.39740
4.50000E+06 4.39368
4.50781E+06 4.38997
4.51563E+06 4.38627
4.52344E+06 4.38259
4.53125E+06 4.37892
4.53906E+06 4.37527
4.54688E+06 4.37162
4.55469E+06 4.36799
4.56250E+06 4.36438
4.57031E+06 4.36077
4.57813E+06 4.35718
4.58594E+06 4.35360
4.59375E+06 4.35003
4.60156E+06 4.34647
4.60938E+06 4.34293
4.61719E+06 4.33940
4.62500E+06 4.33588
4.63281E+06 4.33237
4.64063E+06 4.32888
4.64844E+06 4.32539
4.65625E+06 4.32192
4.66406E+06 4.31846
4.67188E+06 4.31502
4.67969E+06 4.31158
4.68750E+06 4.30815
4.69531E+06 4.30474
4.70313E+06 4.30134
4.71094E+06 4.29795
4.71875E+06 4.29457
4.72656E+06 4.29120
4.73438E+06 4.28785
4.74219E+06 4.28450
4.75000E+06 4.28117
4.75781E+06 4.27785
4.76563E+06 4.27453
4.77344E+06 4.27123
4.78125E+06 4.26794
4.78906E+06 4.26466
4.79688E+06 4.26140
4.80469E+06 4.25814
4.81250E+06 4.25489
4.82031E+06 4.25165
4.82813E+06 4.24843
4.83594E+06 4.24521
4.84375E+06 4.24201
4.85156E+06 4.23882
4.85938E+06 4.23563
4.86719E+06 4.23246
4.87500E+06 4.22930
4.88281E+06 4.22614
4.89063E+06 4.22300
4.89844E+06 4.21987
4.90625E+06 4.21675
4.91406E+06 4.21364
4.92188E+06 4.21053
4.92969E+06 4.20744
4.93750E+06 4.20436
4.94531E+06 4.20129
4.95313E+06 4.19822
4.96094E+06 4.19517
4.96875E+06 4.19213
4.97656E+06 4.18909
4.98438E+06 4.18607
4.99219E+06 4.18305
5.00000E+06 4.18005
5.01085E+06 4.17782
5.02169E+06 4.17560
5.03254E+06 4.17338
5.04338E+06 4.17118
5.05422E+06 4.16899
5.06507E+06 4.16680
5.07591E+06 4.16462
5.08676E+06 4.16246
5.09760E+06 4.16030
5.10845E+06 4.15815
5.11929E+06 4.15601
5.13014E+06 4.15388
5.14098E+06 4.15175
5.15183E+06 4.14964
5.16267E+06 4.14753
5.17352E+06 4.14543
5.18436E+06 4.14334
5.19521E+06 4.14126
5.20605E+06 4.13919
5.21689E+06 4.13713
5.22774E+06 4.13507
5.23858E+06 4.13302
5.24943E+06 4.13099
5.26027E+06 4.12895
5.27112E+06 4.12693
5.28196E+06 4.12492
5.29281E+06 4.12291
5.30365E+06 4.12091
5.31450E+06 4.11892
5.32534E+06 4.11693
5.33619E+06 4.11496
5.34703E+06 4.11299
5.35317E+06 4.11184
5.35932E+06 4.11069
5.36546E+06 4.10954
5.37160E+06 4.10840
5.37775E+06 4.10725
5.38389E+06 4.10611
5.39003E+06 4.10498
5.39618E+06 4.10384
5.40232E+06 4.10271
5.40846E+06 4.10158
5.41461E+06 4.10045
5.42075E+06 4.09933
5.42689E+06 4.09821
5.43303E+06 4.09709
5.43918E+06 4.09597
5.44532E+06 4.09486
5.45146E+06 4.09374
5.45761E+06 4.09263
5.46375E+06 4.09153
5.46989E+06 4.09042
5.47604E+06 4.08932
5.48218E+06 4.08822
5.48832E+06 4.08712
5.49447E+06 4.08603
5.50061E+06 4.08494
5.50675E+06 4.08385
5.51290E+06 4.08276
5.51904E+06 4.08167
5.52518E+06 4.08059
5.53132E+06 4.07951
5.53747E+06 4.07844
5.54361E+06 4.07736
5.55787E+06 4.07477
5.57214E+06 4.07220
5.58640E+06 4.06964
5.60066E+06 4.06708
5.61492E+06 4.06455
5.62918E+06 4.06202
5.64345E+06 4.05951
5.65771E+06 4.05700
5.67197E+06 4.05451
5.68623E+06 4.05203
5.70050E+06 4.04957
5.71476E+06 4.04711
5.72902E+06 4.04467
5.74328E+06 4.04223
5.75754E+06 4.03981
5.77181E+06 4.03740
5.78607E+06 4.03500
5.80033E+06 4.03262
5.81459E+06 4.03024
5.82885E+06 4.02788
5.84312E+06 4.02552
5.85738E+06 4.02318
5.87164E+06 4.02085
5.88590E+06 4.01853
5.90017E+06 4.01622
5.91443E+06 4.01392
5.92869E+06 4.01163
5.94295E+06 4.00935
5.95721E+06 4.00709
5.97148E+06 4.00483
5.98574E+06 4.00259
6.00000E+06 4.00035
6.02211E+06 4.00182
6.04422E+06 4.00330
6.06633E+06 4.00479
6.08844E+06 4.00629
6.11055E+06 4.00779
6.13266E+06 4.00930
6.15477E+06 4.01081
6.17688E+06 4.01233
6.19899E+06 4.01386
6.22109E+06 4.01539
6.24320E+06 4.01693
6.26531E+06 4.01848
6.28742E+06 4.02003
6.30953E+06 4.02159
6.33164E+06 4.02315
6.35375E+06 4.02472
6.37586E+06 4.02629
6.39797E+06 4.02787
6.42008E+06 4.02946
6.44219E+06 4.03105
6.46430E+06 4.03264
6.48641E+06 4.03424
6.50852E+06 4.03584
6.53063E+06 4.03745
6.55274E+06 4.03906
6.57484E+06 4.04068
6.59695E+06 4.04230
6.61906E+06 4.04392
6.64117E+06 4.04555
6.66328E+06 4.04718
6.68539E+06 4.04882
6.70750E+06 4.05046
6.72578E+06 4.05165
6.74406E+06 4.05285
6.76234E+06 4.05405
6.78063E+06 4.05525
6.79891E+06 4.05645
6.81719E+06 4.05765
6.83547E+06 4.05886
6.85375E+06 4.06007
6.87203E+06 4.06128
6.89031E+06 4.06249
6.90859E+06 4.06371
6.92688E+06 4.06492
6.94516E+06 4.06614
6.96344E+06 4.06736
6.98172E+06 4.06858
7.00000E+06 4.06981
7.02112E+06 4.07377
7.04223E+06 4.07774
7.06334E+06 4.08171
7.08446E+06 4.08569
7.10557E+06 4.08968
7.12669E+06 4.09367
7.14780E+06 4.09767
7.16891E+06 4.10168
7.19003E+06 4.10569
7.21114E+06 4.10971
7.23226E+06 4.11374
7.25337E+06 4.11777
7.27448E+06 4.12180
7.29560E+06 4.12584
7.31671E+06 4.12989
7.33783E+06 4.13394
7.35894E+06 4.13799
7.38005E+06 4.14205
7.40117E+06 4.14612
7.42228E+06 4.15019
7.44340E+06 4.15426
7.46451E+06 4.15834
7.48562E+06 4.16242
7.50674E+06 4.16651
7.52785E+06 4.17060
7.54897E+06 4.17469
7.57008E+06 4.17879
7.59119E+06 4.18289
7.61231E+06 4.18700
7.63342E+06 4.19111
7.65454E+06 4.19522
7.67565E+06 4.19933
7.68579E+06 4.20119
7.69592E+06 4.20304
7.70606E+06 4.20489
7.71619E+06 4.20674
7.72633E+06 4.20860
7.73647E+06 4.21045
7.74660E+06 4.21231
7.75674E+06 4.21416
7.76687E+06 4.21602
7.77701E+06 4.21787
7.78715E+06 4.21973
7.79728E+06 4.22159
7.80742E+06 4.22345
7.81755E+06 4.22531
7.82769E+06 4.22716
7.83783E+06 4.22902
7.84796E+06 4.23088
7.85810E+06 4.23275
7.86823E+06 4.23461
7.87837E+06 4.23647
7.88851E+06 4.23833
7.89864E+06 4.24019
7.90878E+06 4.24206
7.91891E+06 4.24392
7.92905E+06 4.24578
7.93919E+06 4.24765
7.94932E+06 4.24951
7.95946E+06 4.25138
7.96959E+06 4.25324
7.97973E+06 4.25511
7.98987E+06 4.25698
8.00000E+06 4.25884
8.00582E+06 4.25994
8.01164E+06 4.26103
8.01746E+06 4.26213
8.02328E+06 4.26323
8.02910E+06 4.26433
8.03492E+06 4.26543
8.04074E+06 4.26653
8.04656E+06 4.26763
8.05238E+06 4.26873
8.05820E+06 4.26983
8.06402E+06 4.27093
8.06984E+06 4.27204
8.07566E+06 4.27314
8.08148E+06 4.27425
8.08730E+06 4.27535
8.09312E+06 4.27646
8.09894E+06 4.27757
8.10476E+06 4.27868
8.11058E+06 4.27979
8.11640E+06 4.28090
8.12222E+06 4.28201
8.12804E+06 4.28312
8.13386E+06 4.28423
8.13968E+06 4.28535
8.14550E+06 4.28646
8.15132E+06 4.28757
8.15714E+06 4.28869
8.16296E+06 4.28981
8.16878E+06 4.29092
8.17460E+06 4.29204
8.18042E+06 4.29316
8.18624E+06 4.29428
8.19206E+06 4.29540
8.19788E+06 4.29652
8.20370E+06 4.29764
8.20952E+06 4.29876
8.21534E+06 4.29988
8.22116E+06 4.30101
8.22698E+06 4.30213
8.23280E+06 4.30326
8.23862E+06 4.30438
8.24444E+06 4.30551
8.25026E+06 4.30663
8.25608E+06 4.30776
8.26190E+06 4.30889
8.26772E+06 4.31002
8.27354E+06 4.31115
8.27936E+06 4.31228
8.28519E+06 4.31341
8.29101E+06 4.31454
8.29683E+06 4.31567
8.30265E+06 4.31680
8.30847E+06 4.31794
8.31429E+06 4.31907
8.32011E+06 4.32021
8.32593E+06 4.32134
8.33175E+06 4.32248
8.33757E+06 4.32361
8.34339E+06 4.32475
8.34921E+06 4.32589
8.35503E+06 4.32703
8.36085E+06 4.32817
8.36667E+06 4.32931
8.37249E+06 4.33045
8.37831E+06 4.33159
8.38413E+06 4.33273
8.38995E+06 4.33387
8.39577E+06 4.33501
8.40159E+06 4.33616
8.40741E+06 4.33730
8.41323E+06 4.33845
8.41905E+06 4.33959
8.42487E+06 4.34074
8.43069E+06 4.34188
8.43651E+06 4.34303
8.44233E+06 4.34418
8.44815E+06 4.34533
8.45397E+06 4.34647
8.45979E+06 4.34762
8.46561E+06 4.34877
8.47143E+06 4.34992
8.47725E+06 4.35107
8.48307E+06 4.35223
8.48889E+06 4.35338
8.49471E+06 4.35453
8.50053E+06 4.35568
8.50635E+06 4.35684
8.51217E+06 4.35799
8.51799E+06 4.35915
8.52381E+06 4.36030
8.52963E+06 4.36146
8.53545E+06 4.36261
8.54127E+06 4.36377
8.54709E+06 4.36493
8.55291E+06 4.36609
8.55873E+06 4.36724
8.56455E+06 4.36840
8.57037E+06 4.36956
8.57619E+06 4.37072
8.58201E+06 4.37188
8.58783E+06 4.37305
8.59365E+06 4.37421
8.59947E+06 4.37537
8.60529E+06 4.37653
8.61111E+06 4.37769
8.61693E+06 4.37886
8.62275E+06 4.38002
8.62857E+06 4.38119
8.63439E+06 4.38235
8.64021E+06 4.38352
8.64603E+06 4.38469
8.65185E+06 4.38585
8.65767E+06 4.38702
8.66349E+06 4.38819
8.66931E+06 4.38936
8.67513E+06 4.39052
8.68095E+06 4.39169
8.68677E+06 4.39286
8.69259E+06 4.39403
8.69841E+06 4.39520
8.70423E+06 4.39637
8.71005E+06 4.39755
8.71587E+06 4.39872
8.72169E+06 4.39989
8.72751E+06 4.40106
8.73333E+06 4.40224
8.73915E+06 4.40341
8.74497E+06 4.40458
8.75294E+06 4.40608
8.76091E+06 4.40757
8.76888E+06 4.40906
8.77685E+06 4.41056
8.78482E+06 4.41205
8.79279E+06 4.41355
8.80076E+06 4.41504
8.80873E+06 4.41654
8.81670E+06 4.41804
8.82467E+06 4.41954
8.83264E+06 4.42104
8.84061E+06 4.42254
8.84858E+06 4.42404
8.85655E+06 4.42554
8.86452E+06 4.42705
8.87249E+06 4.42855
8.88046E+06 4.43005
8.88843E+06 4.43156
8.89640E+06 4.43306
8.90436E+06 4.43457
8.91233E+06 4.43608
8.92030E+06 4.43758
8.92827E+06 4.43909
8.93624E+06 4.44060
8.94421E+06 4.44211
8.95218E+06 4.44362
8.96015E+06 4.44513
8.96812E+06 4.44664
8.97609E+06 4.44815
8.98406E+06 4.44967
8.99203E+06 4.45118
9.00000E+06 4.45269
9.00761E+06 4.45388
9.01521E+06 4.45508
9.02282E+06 4.45627
9.03043E+06 4.45747
9.03803E+06 4.45866
9.04564E+06 4.45986
9.05325E+06 4.46106
9.06085E+06 4.46225
9.06846E+06 4.46345
9.07607E+06 4.46466
9.08368E+06 4.46586
9.09128E+06 4.46706
9.09889E+06 4.46826
9.10650E+06 4.46947
9.11410E+06 4.47068
9.12171E+06 4.47188
9.12932E+06 4.47309
9.13692E+06 4.47430
9.14453E+06 4.47551
9.15214E+06 4.47672
9.15974E+06 4.47793
9.16735E+06 4.47914
9.17496E+06 4.48036
9.18256E+06 4.48157
9.19017E+06 4.48279
9.19778E+06 4.48400
9.20538E+06 4.48522
9.21299E+06 4.48644
9.22060E+06 4.48766
9.22820E+06 4.48888
9.23581E+06 4.49010
9.24342E+06 4.49132
9.25102E+06 4.49254
9.25863E+06 4.49377
9.26624E+06 4.49499
9.27384E+06 4.49622
9.28145E+06 4.49744
9.28906E+06 4.49867
9.29666E+06 4.49990
9.30427E+06 4.50113
9.31188E+06 4.50236
9.31948E+06 4.50359
9.32709E+06 4.50482
9.33470E+06 4.50605
9.34230E+06 4.50728
9.34991E+06 4.50852
9.35752E+06 4.50975
9.36512E+06 4.51099
9.37273E+06 4.51223
9.38034E+06 4.51346
9.38794E+06 4.51470
9.39555E+06 4.51594
9.40316E+06 4.51718
9.41076E+06 4.51842
9.41837E+06 4.51966
9.42598E+06 4.52090
9.43358E+06 4.52215
9.44119E+06 4.52339
9.44880E+06 4.52464
9.45640E+06 4.52588
9.46401E+06 4.52713
9.47162E+06 4.52837
9.47922E+06 4.52962
9.48683E+06 4.53087
9.49485E+06 4.53209
9.50287E+06 4.53331
9.51089E+06 4.53453
9.51890E+06 4.53576
9.52692E+06 4.53698
9.53494E+06 4.53820
9.54296E+06 4.53943
9.55098E+06 4.54065
9.55900E+06 4.54188
9.56701E+06 4.54311
9.57503E+06 4.54434
9.58305E+06 4.54556
9.59107E+06 4.54679
9.59909E+06 4.54803
9.60711E+06 4.54926
9.61512E+06 4.55049
9.62314E+06 4.55172
9.63116E+06 4.55295
9.63918E+06 4.55419
9.64720E+06 4.55542
9.65522E+06 4.55666
9.66323E+06 4.55789
9.67125E+06 4.55913
9.67927E+06 4.56037
9.68729E+06 4.56161
9.69531E+06 4.56285
9.70332E+06 4.56409
9.71134E+06 4.56533
9.71936E+06 4.56657
9.72738E+06 4.56781
9.73540E+06 4.56905
9.74342E+06 4.57029
9.75143E+06 4.57154
9.75945E+06 4.57278
9.76747E+06 4.57403
9.77549E+06 4.57527
9.78351E+06 4.57652
9.79153E+06 4.57777
9.79954E+06 4.57902
9.80756E+06 4.58027
9.81558E+06 4.58152
9.82360E+06 4.58277
9.83162E+06 4.58402
9.83964E+06 4.58527
9.84765E+06 4.58652
9.85567E+06 4.58777
9.86369E+06 4.58903
9.87171E+06 4.59028
9.87973E+06 4.59153
9.88775E+06 4.59279
9.89576E+06 4.59405
9.90378E+06 4.59530
9.91180E+06 4.59656
9.91982E+06 4.59782
9.92784E+06 4.59907
9.93585E+06 4.60033
9.94387E+06 4.60159
9.95189E+06 4.60285
9.95991E+06 4.60411
9.96793E+06 4.60537
9.97595E+06 4.60664
9.98396E+06 4.60790
9.99198E+06 4.60916
1.00000E+07 4.61043
1.00065E+07 4.61111
1.00131E+07 4.61180
1.00196E+07 4.61250
1.00262E+07 4.61319
1.00327E+07 4.61389
1.00392E+07 4.61459
1.00458E+07 4.61530
1.00523E+07 4.61601
1.00588E+07 4.61672
1.00654E+07 4.61744
1.00719E+07 4.61816
1.00785E+07 4.61888
1.00850E+07 4.61960
1.00915E+07 4.62033
1.00981E+07 4.62106
1.01046E+07 4.62180
1.01111E+07 4.62253
1.01177E+07 4.62327
1.01242E+07 4.62402
1.01308E+07 4.62476
1.01373E+07 4.62552
1.01438E+07 4.62627
1.01504E+07 4.62703
1.01569E+07 4.62778
1.01634E+07 4.62855
1.01700E+07 4.62931
1.01765E+07 4.63008
1.01831E+07 4.63085
1.01896E+07 4.63163
1.01961E+07 4.63241
1.02027E+07 4.63319
1.02092E+07 4.63397
1.02093E+07 4.63397
1.02153E+07 4.63457
1.02214E+07 4.63517
1.02274E+07 4.63578
1.02335E+07 4.63638
1.02396E+07 4.63699
1.02456E+07 4.63760
1.02517E+07 4.63821
1.02578E+07 4.63882
1.02638E+07 4.63943
1.02699E+07 4.64004
1.02759E+07 4.64066
1.02820E+07 4.64128
1.02881E+07 4.64190
1.02941E+07 4.64252
1.03002E+07 4.64314
1.03062E+07 4.64376
1.03123E+07 4.64439
1.03184E+07 4.64502
1.03244E+07 4.64564
1.03305E+07 4.64627
1.03366E+07 4.64691
1.03426E+07 4.64754
1.03487E+07 4.64817
1.03547E+07 4.64881
1.03608E+07 4.64945
1.03669E+07 4.65009
1.03729E+07 4.65073
1.03790E+07 4.65137
1.03851E+07 4.65201
1.03911E+07 4.65266
1.03972E+07 4.65331
1.04032E+07 4.65395
1.04093E+07 4.65460
1.04154E+07 4.65526
1.04214E+07 4.65591
1.04275E+07 4.65656
1.04336E+07 4.65722
1.04396E+07 4.65788
1.04457E+07 4.65854
1.04517E+07 4.65920
1.04578E+07 4.65986
1.04639E+07 4.66052
1.04699E+07 4.66119
1.04760E+07 4.66185
1.04820E+07 4.66252
1.04881E+07 4.66319
1.04942E+07 4.66386
1.05002E+07 4.66453
1.05063E+07 4.66521
1.05124E+07 4.66588
1.05184E+07 4.66656
1.05245E+07 4.66724
1.05305E+07 4.66792
1.05366E+07 4.66860
1.05427E+07 4.66928
1.05487E+07 4.66996
1.05548E+07 4.67065
1.05608E+07 4.67134
1.05669E+07 4.67202
1.05730E+07 4.67271
1.05790E+07 4.67340
1.05851E+07 4.67410
1.05911E+07 4.67479
1.05972E+07 4.67549
1.06035E+07 4.67613
1.06098E+07 4.67678
1.06161E+07 4.67743
1.06224E+07 4.67808
1.06287E+07 4.67874
1.06350E+07 4.67939
1.06413E+07 4.68005
1.06476E+07 4.68070
1.06539E+07 4.68136
1.06601E+07 4.68202
1.06664E+07 4.68269
1.06727E+07 4.68335
1.06790E+07 4.68402
1.06853E+07 4.68468
1.06916E+07 4.68535
1.06979E+07 4.68602
1.07042E+07 4.68669
1.07105E+07 4.68736
1.07168E+07 4.68804
1.07231E+07 4.68871
1.07294E+07 4.68939
1.07357E+07 4.69006
1.07420E+07 4.69074
1.07483E+07 4.69142
1.07546E+07 4.69211
1.07608E+07 4.69279
1.07671E+07 4.69348
1.07734E+07 4.69416
1.07797E+07 4.69485
1.07860E+07 4.69554
1.07923E+07 4.69623
1.07986E+07 4.69692
1.08049E+07 4.69762
1.08112E+07 4.69831
1.08175E+07 4.69901
1.08238E+07 4.69971
1.08301E+07 4.70041
1.08364E+07 4.70111
1.08427E+07 4.70181
1.08490E+07 4.70251
1.08553E+07 4.70322
1.08615E+07 4.70393
1.08678E+07 4.70463
1.08741E+07 4.70534
1.08804E+07 4.70605
1.08867E+07 4.70677
1.08930E+07 4.70748
1.08993E+07 4.70819
1.09056E+07 4.70891
1.09119E+07 4.70963
1.09182E+07 4.71035
1.09245E+07 4.71107
1.09308E+07 4.71179
1.09371E+07 4.71251
1.09434E+07 4.71324
1.09497E+07 4.71396
1.09560E+07 4.71469
1.09622E+07 4.71542
1.09685E+07 4.71615
1.09748E+07 4.71688
1.09811E+07 4.71761
1.09874E+07 4.71835
1.09937E+07 4.71908
1.10000E+07 4.71982
1.10077E+07 4.72045
1.10153E+07 4.72109
1.10229E+07 4.72173
1.10306E+07 4.72237
1.10382E+07 4.72301
1.10459E+07 4.72366
1.10535E+07 4.72431
1.10611E+07 4.72496
1.10688E+07 4.72561
1.10764E+07 4.72627
1.10841E+07 4.72693
1.10917E+07 4.72759
1.10994E+07 4.72825
1.11070E+07 4.72892
1.11146E+07 4.72959
1.11223E+07 4.73026
1.11299E+07 4.73093
1.11376E+07 4.73161
1.11452E+07 4.73229
1.11529E+07 4.73297
1.11605E+07 4.73365
1.11681E+07 4.73434
1.11758E+07 4.73503
1.11834E+07 4.73572
1.11911E+07 4.73641
1.11987E+07 4.73711
1.12064E+07 4.73780
1.12140E+07 4.73850
1.12216E+07 4.73921
1.12293E+07 4.73991
1.12369E+07 4.74062
1.12446E+07 4.74133
1.12522E+07 4.74204
1.12598E+07 4.74276
1.12675E+07 4.74347
1.12751E+07 4.74419
1.12828E+07 4.74492
1.12904E+07 4.74564
1.12981E+07 4.74637
1.13057E+07 4.74710
1.13133E+07 4.74783
1.13210E+07 4.74856
1.13286E+07 4.74930
1.13363E+07 4.75004
1.13439E+07 4.75078
1.13516E+07 4.75152
1.13592E+07 4.75227
1.13668E+07 4.75301
1.13745E+07 4.75377
1.13821E+07 4.75452
1.13898E+07 4.75527
1.13974E+07 4.75603
1.14051E+07 4.75679
1.14127E+07 4.75755
1.14203E+07 4.75832
1.14280E+07 4.75908
1.14356E+07 4.75985
1.14433E+07 4.76062
1.14509E+07 4.76140
1.14585E+07 4.76217
1.14662E+07 4.76295
1.14738E+07 4.76373
1.14815E+07 4.76451
1.14891E+07 4.76530
1.14971E+07 4.76611
1.15051E+07 4.76692
1.15131E+07 4.76773
1.15210E+07 4.76855
1.15290E+07 4.76937
1.15370E+07 4.77019
1.15450E+07 4.77101
1.15530E+07 4.77184
1.15610E+07 4.77267
1.15689E+07 4.77350
1.15769E+07 4.77433
1.15849E+07 4.77517
1.15929E+07 4.77601
1.16009E+07 4.77685
1.16089E+07 4.77769
1.16168E+07 4.77854
1.16248E+07 4.77938
1.16328E+07 4.78023
1.16408E+07 4.78109
1.16488E+07 4.78194
1.16568E+07 4.78280
1.16647E+07 4.78366
1.16727E+07 4.78452
1.16807E+07 4.78539
1.16887E+07 4.78626
1.16967E+07 4.78713
1.17046E+07 4.78800
1.17126E+07 4.78887
1.17206E+07 4.78975
1.17286E+07 4.79063
1.17366E+07 4.79151
1.17446E+07 4.79240
1.17525E+07 4.79328
1.17605E+07 4.79417
1.17685E+07 4.79506
1.17765E+07 4.79596
1.17845E+07 4.79686
1.17925E+07 4.79775
1.18004E+07 4.79865
1.18084E+07 4.79956
1.18164E+07 4.80046
1.18244E+07 4.80137
1.18324E+07 4.80228
1.18404E+07 4.80319
1.18483E+07 4.80411
1.18563E+07 4.80503
1.18643E+07 4.80595
1.18723E+07 4.80687
1.18803E+07 4.80779
1.18883E+07 4.80872
1.18962E+07 4.80965
1.19042E+07 4.81058
1.19122E+07 4.81151
1.19202E+07 4.81245
1.19282E+07 4.81339
1.19361E+07 4.81433
1.19441E+07 4.81527
1.19521E+07 4.81622
1.19601E+07 4.81716
1.19681E+07 4.81811
1.19761E+07 4.81907
1.19840E+07 4.82002
1.19920E+07 4.82098
1.20000E+07 4.82194
1.20077E+07 4.82242
1.20153E+07 4.82291
1.20230E+07 4.82341
1.20306E+07 4.82390
1.20383E+07 4.82439
1.20459E+07 4.82489
1.20536E+07 4.82539
1.20613E+07 4.82589
1.20689E+07 4.82640
1.20766E+07 4.82690
1.20842E+07 4.82741
1.20919E+07 4.82792
1.20995E+07 4.82843
1.21072E+07 4.82895
1.21149E+07 4.82946
1.21225E+07 4.82998
1.21302E+07 4.83050
1.21378E+07 4.83102
1.21455E+07 4.83155
1.21531E+07 4.83207
1.21608E+07 4.83260
1.21684E+07 4.83313
1.21761E+07 4.83366
1.21838E+07 4.83419
1.21914E+07 4.83473
1.21991E+07 4.83527
1.22067E+07 4.83581
1.22144E+07 4.83635
1.22220E+07 4.83689
1.22297E+07 4.83744
1.22374E+07 4.83798
1.22450E+07 4.83853
1.22527E+07 4.83908
1.22603E+07 4.83964
1.22680E+07 4.84019
1.22756E+07 4.84075
1.22833E+07 4.84131
1.22909E+07 4.84187
1.22986E+07 4.84243
1.23063E+07 4.84300
1.23139E+07 4.84356
1.23216E+07 4.84413
1.23292E+07 4.84470
1.23369E+07 4.84528
1.23445E+07 4.84585
1.23522E+07 4.84643
1.23599E+07 4.84701
1.23675E+07 4.84759
1.23752E+07 4.84817
1.23828E+07 4.84875
1.23905E+07 4.84934
1.23981E+07 4.84993
1.24058E+07 4.85052
1.24134E+07 4.85111
1.24211E+07 4.85170
1.24288E+07 4.85230
1.24364E+07 4.85290
1.24441E+07 4.85350
1.24517E+07 4.85410
1.24594E+07 4.85470
1.24670E+07 4.85531
1.24747E+07 4.85591
1.24824E+07 4.85652
1.24900E+07 4.85713
1.24980E+07 4.85776
1.25059E+07 4.85839
1.25139E+07 4.85902
1.25219E+07 4.85965
1.25299E+07 4.86028
1.25378E+07 4.86092
1.25458E+07 4.86156
1.25538E+07 4.86220
1.25617E+07 4.86284
1.25697E+07 4.86349
1.25777E+07 4.86413
1.25856E+07 4.86478
1.25936E+07 4.86543
1.26016E+07 4.86609
1.26095E+07 4.86674
1.26175E+07 4.86740
1.26255E+07 4.86806
1.26334E+07 4.86872
1.26414E+07 4.86938
1.26494E+07 4.87004
1.26574E+07 4.87071
1.26653E+07 4.87138
1.26733E+07 4.87205
1.26813E+07 4.87272
1.26892E+07 4.87340
1.26972E+07 4.87407
1.27052E+07 4.87475
1.27131E+07 4.87543
1.27211E+07 4.87612
1.27291E+07 4.87680
1.27370E+07 4.87749
1.27450E+07 4.87818
1.27530E+07 4.87887
1.27609E+07 4.87956
1.27689E+07 4.88025
1.27769E+07 4.88095
1.27849E+07 4.88165
1.27928E+07 4.88235
1.28008E+07 4.88305
1.28088E+07 4.88376
1.28167E+07 4.88446
1.28247E+07 4.88517
1.28327E+07 4.88588
1.28406E+07 4.88659
1.28486E+07 4.88731
1.28566E+07 4.88803
1.28645E+07 4.88874
1.28725E+07 4.88946
1.28805E+07 4.89019
1.28884E+07 4.89091
1.28964E+07 4.89164
1.29044E+07 4.89237
1.29124E+07 4.89310
1.29203E+07 4.89383
1.29283E+07 4.89457
1.29363E+07 4.89530
1.29442E+07 4.89604
1.29522E+07 4.89678
1.29602E+07 4.89753
1.29681E+07 4.89827
1.29761E+07 4.89902
1.29841E+07 4.89977
1.29920E+07 4.90052
1.30000E+07 4.90127
1.30077E+07 4.90178
1.30153E+07 4.90228
1.30230E+07 4.90278
1.30307E+07 4.90329
1.30383E+07 4.90379
1.30460E+07 4.90430
1.30537E+07 4.90481
1.30613E+07 4.90532
1.30690E+07 4.90583
1.30767E+07 4.90635
1.30844E+07 4.90686
1.30920E+07 4.90737
1.30997E+07 4.90789
1.31074E+07 4.90841
1.31150E+07 4.90893
1.31227E+07 4.90945
1.31304E+07 4.90997
1.31380E+07 4.91049
1.31457E+07 4.91101
1.31534E+07 4.91154
1.31610E+07 4.91206
1.31687E+07 4.91259
1.31764E+07 4.91312
1.31840E+07 4.91365
1.31917E+07 4.91418
1.31994E+07 4.91471
1.32070E+07 4.91524
1.32147E+07 4.91578
1.32224E+07 4.91631
1.32300E+07 4.91685
1.32377E+07 4.91739
1.32454E+07 4.91793
1.32530E+07 4.91847
1.32607E+07 4.91901
1.32684E+07 4.91955
1.32760E+07 4.92009
1.32837E+07 4.92064
1.32914E+07 4.92119
1.32990E+07 4.92173
1.33067E+07 4.92228
1.33144E+07 4.92283
1.33220E+07 4.92338
1.33297E+07 4.92393
1.33374E+07 4.92449
1.33450E+07 4.92504
1.33527E+07 4.92560
1.33604E+07 4.92616
1.33680E+07 4.92671
1.33757E+07 4.92727
1.33834E+07 4.92783
1.33910E+07 4.92839
1.33987E+07 4.92896
1.34064E+07 4.92952
1.34140E+07 4.93009
1.34217E+07 4.93065
1.34294E+07 4.93122
1.34370E+07 4.93179
1.34447E+07 4.93236
1.34524E+07 4.93293
1.34600E+07 4.93350
1.34677E+07 4.93408
1.34754E+07 4.93465
1.34830E+07 4.93523
1.34907E+07 4.93580
1.34987E+07 4.93639
1.35066E+07 4.93698
1.35146E+07 4.93756
1.35225E+07 4.93815
1.35305E+07 4.93874
1.35385E+07 4.93933
1.35464E+07 4.93993
1.35544E+07 4.94052
1.35623E+07 4.94112
1.35703E+07 4.94171
1.35783E+07 4.94231
1.35862E+07 4.94291
1.35942E+07 4.94351
1.36021E+07 4.94411
1.36101E+07 4.94472
1.36180E+07 4.94532
1.36260E+07 4.94592
1.36340E+07 4.94653
1.36419E+07 4.94714
1.36499E+07 4.94775
1.36578E+07 4.94836
1.36658E+07 4.94897
1.36737E+07 4.94959
1.36817E+07 4.95020
1.36897E+07 4.95082
1.36976E+07 4.95143
1.37056E+07 4.95205
1.37135E+07 4.95267
1.37215E+07 4.95329
1.37294E+07 4.95392
1.37374E+07 4.95454
1.37454E+07 4.95517
1.37533E+07 4.95579
1.37613E+07 4.95642
1.37692E+07 4.95705
1.37772E+07 4.95768
1.37852E+07 4.95831
1.37931E+07 4.95895
1.38011E+07 4.95958
1.38090E+07 4.96022
1.38170E+07 4.96085
1.38249E+07 4.96149
1.38329E+07 4.96213
1.38409E+07 4.96277
1.38488E+07 4.96342
1.38568E+07 4.96406
1.38647E+07 4.96471
1.38727E+07 4.96536
1.38806E+07 4.96600
1.38886E+07 4.96665
1.38966E+07 4.96731
1.39045E+07 4.96796
1.39125E+07 4.96861
1.39204E+07 4.96927
1.39284E+07 4.96992
1.39363E+07 4.97058
1.39443E+07 4.97124
1.39523E+07 4.97190
1.39602E+07 4.97257
1.39682E+07 4.97323
1.39761E+07 4.97389
1.39841E+07 4.97456
1.39921E+07 4.97523
1.40000E+07 4.97590
1.40154E+07 4.97707
1.40307E+07 4.97824
1.40461E+07 4.97942
1.40614E+07 4.98060
1.40768E+07 4.98179
1.40921E+07 4.98297
1.41075E+07 4.98416
1.41229E+07 4.98535
1.41382E+07 4.98655
1.41536E+07 4.98774
1.41689E+07 4.98894
1.41843E+07 4.99015
1.41996E+07 4.99135
1.42150E+07 4.99256
1.42304E+07 4.99377
1.42457E+07 4.99499
1.42611E+07 4.99621
1.42764E+07 4.99743
1.42918E+07 4.99865
1.43071E+07 4.99988
1.43225E+07 5.00111
1.43378E+07 5.00234
1.43532E+07 5.00358
1.43686E+07 5.00482
1.43839E+07 5.00606
1.43993E+07 5.00731
1.44146E+07 5.00855
1.44300E+07 5.00981
1.44453E+07 5.01106
1.44607E+07 5.01232
1.44761E+07 5.01358
1.44914E+07 5.01484
1.45000E+07 5.01556
1.45300E+07 5.01780
1.45600E+07 5.02005
1.45900E+07 5.02232
1.46199E+07 5.02459
1.46499E+07 5.02687
1.46799E+07 5.02916
1.47099E+07 5.03146
1.47399E+07 5.03377
1.47698E+07 5.03610
1.47998E+07 5.03843
1.48298E+07 5.04077
1.48598E+07 5.04312
1.48898E+07 5.04548
1.49197E+07 5.04785
1.49497E+07 5.05023
1.49797E+07 5.05262
1.50000E+07 5.05417
1.50156E+07 5.05504
1.50313E+07 5.05591
1.50469E+07 5.05678
1.50625E+07 5.05765
1.50781E+07 5.05853
1.50938E+07 5.05941
1.51094E+07 5.06029
1.51250E+07 5.06117
1.51406E+07 5.06206
1.51563E+07 5.06295
1.51719E+07 5.06384
1.51875E+07 5.06473
1.52031E+07 5.06562
1.52188E+07 5.06652
1.52344E+07 5.06742
1.52500E+07 5.06832
1.52656E+07 5.06922
1.52813E+07 5.07013
1.52969E+07 5.07103
1.53125E+07 5.07194
1.53281E+07 5.07285
1.53438E+07 5.07376
1.53594E+07 5.07468
1.53750E+07 5.07560
1.53906E+07 5.07652
1.54063E+07 5.07744
1.54219E+07 5.07836
1.54375E+07 5.07929
1.54531E+07 5.08022
1.54688E+07 5.08115
1.54844E+07 5.08208
1.55000E+07 5.08301
1.55156E+07 5.08395
1.55313E+07 5.08489
1.55469E+07 5.08583
1.55625E+07 5.08678
1.55781E+07 5.08772
1.55938E+07 5.08867
1.56094E+07 5.08962
1.56250E+07 5.09057
1.56406E+07 5.09153
1.56563E+07 5.09248
1.56719E+07 5.09345
1.56875E+07 5.09441
1.57031E+07 5.09537
1.57188E+07 5.09634
1.57344E+07 5.09731
1.57500E+07 5.09828
1.57656E+07 5.09925
1.57813E+07 5.10022
1.57969E+07 5.10120
1.58125E+07 5.10218
1.58281E+07 5.10316
1.58438E+07 5.10415
1.58594E+07 5.10514
1.58750E+07 5.10613
1.58906E+07 5.10712
1.59063E+07 5.10811
1.59219E+07 5.10911
1.59375E+07 5.11011
1.59531E+07 5.11111
1.59688E+07 5.11211
1.59844E+07 5.11312
1.60000E+07 5.11413
1.60170E+07 5.11341
1.60340E+07 5.11269
1.60510E+07 5.11198
1.60680E+07 5.11127
1.60850E+07 5.11056
1.61020E+07 5.10986
1.61190E+07 5.10917
1.61360E+07 5.10847
1.61530E+07 5.10778
1.61699E+07 5.10710
1.61869E+07 5.10642
1.62039E+07 5.10574
1.62209E+07 5.10506
1.62379E+07 5.10439
1.62549E+07 5.10373
1.62719E+07 5.10306
1.62947E+07 5.10210
1.63174E+07 5.10114
1.63402E+07 5.10019
1.63629E+07 5.09924
1.63857E+07 5.09829
1.64084E+07 5.09736
1.64312E+07 5.09642
1.64539E+07 5.09549
1.64767E+07 5.09456
1.64994E+07 5.09364
1.65222E+07 5.09272
1.65449E+07 5.09180
1.65677E+07 5.09089
1.65905E+07 5.08999
1.66132E+07 5.08908
1.66360E+07 5.08819
1.66587E+07 5.08730
1.66815E+07 5.08641
1.67042E+07 5.08552
1.67270E+07 5.08465
1.67497E+07 5.08377
1.67725E+07 5.08290
1.67952E+07 5.08203
1.68180E+07 5.08117
1.68407E+07 5.08032
1.68635E+07 5.07946
1.68862E+07 5.07862
1.69090E+07 5.07777
1.69318E+07 5.07693
1.69545E+07 5.07610
1.69773E+07 5.07527
1.70000E+07 5.07445
1.70313E+07 5.07319
1.70625E+07 5.07193
1.70938E+07 5.07069
1.71250E+07 5.06945
1.71563E+07 5.06821
1.71875E+07 5.06698
1.72188E+07 5.06576
1.72500E+07 5.06455
1.72813E+07 5.06334
1.73125E+07 5.06213
1.73438E+07 5.06094
1.73750E+07 5.05975
1.74063E+07 5.05856
1.74375E+07 5.05738
1.74688E+07 5.05621
1.75000E+07 5.05505
1.75313E+07 5.05389
1.75625E+07 5.05274
1.75938E+07 5.05159
1.76250E+07 5.05046
1.76563E+07 5.04932
1.76875E+07 5.04820
1.77188E+07 5.04708
1.77500E+07 5.04597
1.77813E+07 5.04486
1.78125E+07 5.04376
1.78438E+07 5.04267
1.78750E+07 5.04159
1.79063E+07 5.04051
1.79375E+07 5.03944
1.79688E+07 5.03837
1.80000E+07 5.03732
1.80073E+07 5.03612
1.80073E+07 5.03611
1.80384E+07 5.03109
1.80694E+07 5.02609
1.81004E+07 5.02110
1.81314E+07 5.01612
1.81624E+07 5.01115
1.81935E+07 5.00619
1.82245E+07 5.00124
1.82555E+07 4.99630
1.82865E+07 4.99138
1.83176E+07 4.98646
1.83486E+07 4.98156
1.83796E+07 4.97667
1.84106E+07 4.97179
1.84416E+07 4.96692
1.84727E+07 4.96206
1.85037E+07 4.95721
1.85347E+07 4.95237
1.85657E+07 4.94754
1.85967E+07 4.94273
1.86278E+07 4.93792
1.86588E+07 4.93313
1.86898E+07 4.92835
1.87208E+07 4.92358
1.87518E+07 4.91881
1.87829E+07 4.91407
1.88139E+07 4.90933
1.88449E+07 4.90460
1.88759E+07 4.89988
1.89069E+07 4.89517
1.89380E+07 4.89048
1.89690E+07 4.88579
1.90000E+07 4.88112
1.90625E+07 4.87198
1.91250E+07 4.86287
1.91875E+07 4.85377
1.92500E+07 4.84470
1.93125E+07 4.83564
1.93750E+07 4.82661
1.94375E+07 4.81760
1.95000E+07 4.80861
1.95625E+07 4.79964
1.96250E+07 4.79068
1.96875E+07 4.78176
1.97500E+07 4.77285
1.98125E+07 4.76396
1.98750E+07 4.75509
1.99375E+07 4.74625
2.00000E+07 4.73742
