Xe-132(n,g) ENDFB-8.0
Energy(eV) XS(b)
1.00000E-05 241.299
1.03125E-05 237.615
1.06250E-05 234.095
1.09375E-05 230.726
1.12500E-05 227.499
1.15625E-05 224.404
1.18750E-05 221.431
1.21875E-05 218.574
1.25000E-05 215.824
1.28125E-05 213.176
1.31250E-05 210.623
1.34375E-05 208.160
1.37500E-05 205.781
1.43750E-05 201.257
1.50000E-05 197.020
1.56250E-05 193.039
1.62500E-05 189.290
1.68750E-05 185.752
1.75000E-05 182.405
1.81250E-05 179.232
1.87500E-05 176.220
1.93750E-05 173.354
2.00000E-05 170.624
2.09375E-05 166.760
2.18750E-05 163.148
2.28125E-05 159.760
2.37500E-05 156.575
2.46875E-05 153.574
2.56250E-05 150.738
2.65625E-05 148.054
2.75000E-05 145.508
2.84375E-05 143.090
2.93750E-05 140.788
3.03125E-05 138.594
3.12500E-05 136.499
3.21875E-05 134.496
3.31250E-05 132.579
3.40625E-05 130.742
3.50000E-05 128.979
3.59375E-05 127.286
3.68750E-05 125.657
3.78125E-05 124.090
3.87500E-05 122.580
3.96875E-05 121.123
4.06250E-05 119.717
4.25000E-05 117.047
4.43750E-05 114.547
4.62500E-05 112.201
4.81250E-05 109.994
5.00000E-05 107.912
5.15625E-05 106.264
5.31250E-05 104.690
5.46875E-05 103.183
5.62500E-05 101.740
5.78125E-05 100.356
5.93750E-05 99.0263
6.09375E-05 97.7484
6.25000E-05 96.5188
6.40625E-05 95.3345
6.56250E-05 94.1927
6.71875E-05 93.0909
6.87500E-05 92.0270
7.18750E-05 90.0041
7.50000E-05 88.1090
7.81250E-05 86.3288
8.12500E-05 84.6523
8.43750E-05 83.0699
8.75000E-05 81.5729
9.06250E-05 80.1541
9.37500E-05 78.8069
9.68750E-05 77.5253
0.000100000 76.3043
0.000103125 75.1393
0.000106250 74.0260
0.000109375 72.9608
0.000112500 71.9403
0.000115625 70.9614
0.000118750 70.0214
0.000121875 69.1179
0.000125000 68.2484
0.000128125 67.4109
0.000131250 66.6035
0.000134375 65.8245
0.000137500 65.0721
0.000143750 63.6417
0.000150000 62.3017
0.000156250 61.0429
0.000162500 59.8574
0.000168750 58.7384
0.000175000 57.6799
0.000181250 56.6767
0.000187500 55.7240
0.000193750 54.8178
0.000200000 53.9544
0.000209375 52.7326
0.000218750 51.5901
0.000228125 50.5188
0.000237500 49.5116
0.000246875 48.5624
0.000256250 47.6657
0.000265625 46.8169
0.000275000 46.0119
0.000284375 45.2470
0.000293750 44.5191
0.000303125 43.8252
0.000312500 43.1627
0.000321875 42.5294
0.000331250 41.9232
0.000340625 41.3422
0.000350000 40.7847
0.000359375 40.2491
0.000368750 39.7341
0.000378125 39.2384
0.000387500 38.7608
0.000396875 38.3002
0.000406250 37.8556
0.000425000 37.0110
0.000443750 36.2206
0.000462500 35.4787
0.000481250 34.7805
0.000500000 34.1221
0.000515625 33.6010
0.000531250 33.1031
0.000546875 32.6267
0.000562500 32.1703
0.000578125 31.7325
0.000593750 31.3121
0.000609375 30.9080
0.000625000 30.5191
0.000640625 30.1445
0.000656250 29.7834
0.000671875 29.4350
0.000687500 29.0985
0.000718750 28.4588
0.000750000 27.8594
0.000781250 27.2964
0.000812500 26.7662
0.000843750 26.2657
0.000875000 25.7923
0.000906250 25.3436
0.000937500 24.9175
0.000968750 24.5122
0.00100000 24.1260
0.00103125 23.7576
0.00106250 23.4055
0.00109375 23.0686
0.00112500 22.7458
0.00115625 22.4362
0.00118750 22.1389
0.00121875 21.8531
0.00125000 21.5781
0.00128125 21.3133
0.00131250 21.0579
0.00134375 20.8115
0.00137500 20.5735
0.00143750 20.1211
0.00150000 19.6973
0.00156250 19.2991
0.00162500 18.9241
0.00168750 18.5702
0.00175000 18.2354
0.00181250 17.9180
0.00187500 17.6167
0.00193750 17.3300
0.00200000 17.0569
0.00209375 16.6704
0.00218750 16.3090
0.00228125 15.9701
0.00237500 15.6515
0.00246875 15.3512
0.00256250 15.0675
0.00265625 14.7990
0.00275000 14.5443
0.00284375 14.3024
0.00293750 14.0721
0.00303125 13.8525
0.00312500 13.6429
0.00321875 13.4426
0.00331250 13.2508
0.00340625 13.0669
0.00350000 12.8905
0.00359375 12.7211
0.00368750 12.5582
0.00378125 12.4013
0.00387500 12.2502
0.00396875 12.1044
0.00406250 11.9638
0.00425000 11.6965
0.00443750 11.4464
0.00462500 11.2116
0.00481250 10.9907
0.00500000 10.7823
0.00515625 10.6174
0.00531250 10.4599
0.00546875 10.3091
0.00562500 10.1646
0.00578125 10.0261
0.00593750 9.89302
0.00609375 9.76511
0.00625000 9.64203
0.00640625 9.52348
0.00656250 9.40918
0.00671875 9.29890
0.00687500 9.19239
0.00718750 8.98987
0.00750000 8.80014
0.00781250 8.62190
0.00812500 8.45403
0.00843750 8.29556
0.00875000 8.14565
0.00906250 8.00355
0.00937500 7.86861
0.00968750 7.74024
0.0100000 7.61794
0.0103125 7.50123
0.0106250 7.38971
0.0109375 7.28300
0.0112500 7.18076
0.0115625 7.08270
0.0118750 6.98853
0.0121875 6.89801
0.0125000 6.81090
0.0128125 6.72699
0.0131250 6.64609
0.0134375 6.56804
0.0137500 6.49265
0.0143750 6.34930
0.0150000 6.21499
0.0156250 6.08881
0.0162500 5.96995
0.0168750 5.85774
0.0175000 5.75159
0.0181250 5.65096
0.0187500 5.55539
0.0193750 5.46447
0.0200000 5.37784
0.0206625 5.29033
0.0213250 5.20693
0.0219875 5.12731
0.0226500 5.05121
0.0233125 4.97837
0.0239750 4.90856
0.0246375 4.84158
0.0253000 4.77725
0.0264578 4.67066
0.0276156 4.57084
0.0287734 4.47709
0.0299313 4.38883
0.0310891 4.30554
0.0322469 4.22677
0.0334047 4.15212
0.0345625 4.08123
0.0355274 4.02480
0.0364922 3.97062
0.0374570 3.91853
0.0384219 3.86840
0.0393867 3.82011
0.0403516 3.77356
0.0413164 3.72863
0.0422813 3.68525
0.0442109 3.60276
0.0461406 3.52548
0.0480703 3.45288
0.0500000 3.38451
0.0515625 3.33197
0.0531250 3.28175
0.0546875 3.23369
0.0562500 3.18764
0.0578125 3.14345
0.0593750 3.10102
0.0609375 3.06022
0.0625000 3.02096
0.0640625 2.98314
0.0656250 2.94668
0.0671875 2.91149
0.0687500 2.87750
0.0718750 2.81285
0.0750000 2.75224
0.0781250 2.69525
0.0812500 2.64155
0.0843750 2.59083
0.0875000 2.54283
0.0906250 2.49731
0.0937500 2.45407
0.0968750 2.41292
0.100000 2.37370
0.103125 2.33625
0.106250 2.30046
0.109375 2.26619
0.112500 2.23335
0.115625 2.20183
0.118750 2.17156
0.121875 2.14244
0.125000 2.11441
0.128125 2.08741
0.131250 2.06138
0.134375 2.03625
0.137500 2.01198
0.143750 1.96580
0.150000 1.92247
0.156250 1.88170
0.162500 1.84327
0.168750 1.80697
0.175000 1.77260
0.181250 1.73999
0.187500 1.70900
0.193750 1.67950
0.200000 1.65137
0.204688 1.63112
0.209375 1.61156
0.218750 1.57429
0.228125 1.53927
0.237500 1.50629
0.246875 1.47517
0.256250 1.44574
0.265625 1.41784
0.275000 1.39135
0.284375 1.36616
0.293750 1.34215
0.303125 1.31924
0.312500 1.29734
0.321875 1.27638
0.331250 1.25630
0.340625 1.23702
0.350000 1.21851
0.359375 1.20071
0.368750 1.18357
0.378125 1.16705
0.387500 1.15112
0.396875 1.13575
0.406250 1.12089
0.415625 1.10654
0.425000 1.09267
0.443750 1.06619
0.462500 1.04125
0.500000 0.995578
0.531250 0.961159
0.562500 0.929473
0.593750 0.900235
0.625000 0.873140
0.687500 0.824403
0.750000 0.781666
0.812500 0.743771
0.875000 0.709937
0.937500 0.679405
1.00000 0.651584
1.06250 0.626158
1.12500 0.602798
1.18750 0.581236
1.25000 0.561249
1.31250 0.542655
1.37500 0.525297
1.50000 0.493781
1.62500 0.465860
1.75000 0.440949
1.87500 0.418508
2.00000 0.398094
2.09375 0.383974
2.18750 0.370781
2.28125 0.358402
2.37500 0.346760
2.56250 0.325425
2.75000 0.306358
2.93750 0.289177
3.12500 0.273574
3.31250 0.259362
3.50000 0.246359
3.68750 0.234414
3.87500 0.223403
4.06250 0.213220
4.25000 0.203775
4.43750 0.194992
4.62500 0.186803
4.81250 0.179153
5.00000 0.172003
5.31250 0.161044
5.62500 0.151133
5.93750 0.142143
6.25000 0.133956
6.56250 0.126476
6.87500 0.119619
7.18750 0.113314
7.50000 0.107502
7.81250 0.102132
8.12500 0.0971565
8.43750 0.0925385
8.75000 0.0882431
9.06250 0.0842404
9.37500 0.0805038
9.68750 0.0770099
10.0000 0.0737378
10.3125 0.0706689
10.6250 0.0677864
10.9375 0.0650755
11.2500 0.0625228
11.5625 0.0601160
11.8750 0.0578443
12.1875 0.0556976
12.5000 0.0536716
13.1250 0.0499306
13.7500 0.0465591
14.3750 0.0435141
15.0000 0.0407551
15.6250 0.0382476
16.2500 0.0359621
16.8750 0.0338735
17.5000 0.0319599
18.1250 0.0302027
18.7500 0.0285854
19.3750 0.0270939
20.0000 0.0257147
20.4688 0.0247478
20.9375 0.0238349
21.4063 0.0229716
21.8750 0.0221559
22.5781 0.0210195
23.2813 0.0199629
23.9844 0.0189764
24.6875 0.0180600
25.3906 0.0172200
26.0938 0.0164355
26.7969 0.0156986
27.5000 0.0150100
28.2031 0.0143739
28.9063 0.0137766
29.6094 0.0132130
30.3125 0.0126835
31.0156 0.0121912
31.7188 0.0117270
32.4219 0.0112870
33.1250 0.0108719
34.0625 0.0103569
35.0000 0.00987949
35.9375 0.00943606
36.8750 0.00902355
37.8125 0.00863920
38.7500 0.00828057
39.6875 0.00794546
40.6250 0.00763190
41.5625 0.00733812
42.5000 0.00706253
43.4375 0.00680369
44.3750 0.00656029
45.3125 0.00633117
46.2500 0.00611558
48.1250 0.00571982
50.0000 0.00536583
51.5625 0.00509895
52.9297 0.00488460
54.2969 0.00468602
55.6641 0.00450132
57.0313 0.00432923
58.3984 0.00416868
59.7656 0.00401872
61.1328 0.00387854
62.5000 0.00374760
64.8438 0.00354317
67.1875 0.00335828
69.5313 0.00319316
71.8750 0.00304308
75.0000 0.00286540
78.1250 0.00270891
81.2500 0.00257059
84.3750 0.00244785
87.5000 0.00233855
90.6250 0.00224091
93.7500 0.00215342
96.8750 0.00207482
100.000 0.00200405
103.125 0.00194019
106.250 0.00188246
109.375 0.00183019
112.500 0.00178281
115.625 0.00173981
118.750 0.00170081
125.000 0.00163314
131.250 0.00157726
137.500 0.00153128
143.750 0.00149371
150.000 0.00146337
156.250 0.00143933
162.500 0.00142085
168.750 0.00140736
175.000 0.00139839
181.250 0.00139362
190.625 0.00139413
200.000 0.00140211
209.886 0.00142005
219.772 0.00144630
229.658 0.00148173
239.544 0.00152770
249.430 0.00158391
259.316 0.00165352
264.259 0.00169303
269.202 0.00173791
279.088 0.00183896
284.930 0.00191000
290.772 0.00198987
296.614 0.00207759
302.455 0.00217907
308.297 0.00229382
314.139 0.00242574
319.981 0.00257764
325.822 0.00275273
329.867 0.00289177
333.911 0.00304767
337.955 0.00322296
342.000 0.00342099
346.044 0.00364600
350.088 0.00390324
354.132 0.00419836
358.177 0.00454380
360.648 0.00478426
363.120 0.00504972
365.591 0.00534480
368.063 0.00567515
370.534 0.00604411
373.006 0.00646136
375.477 0.00693423
377.949 0.00747169
379.634 0.00788371
381.319 0.00833796
383.004 0.00884056
384.689 0.00939846
386.375 0.0100154
388.060 0.0107106
389.745 0.0114926
391.430 0.0123767
392.666 0.0131008
393.901 0.0138987
395.137 0.0147812
396.373 0.0157607
397.609 0.0168520
398.844 0.0180734
400.080 0.0194463
401.316 0.0209970
402.271 0.0223378
403.226 0.0238221
404.181 0.0254715
405.135 0.0273116
406.090 0.0293723
407.045 0.0316789
408.000 0.0342978
408.478 0.0357394
408.955 0.0372785
409.573 0.0394308
410.191 0.0417847
410.809 0.0443663
411.427 0.0472058
412.044 0.0503397
412.662 0.0538100
413.280 0.0576667
413.898 0.0619688
414.460 0.0663277
415.021 0.0711794
415.302 0.0738140
415.583 0.0766011
415.864 0.0795548
416.145 0.0826863
416.426 0.0860128
416.707 0.0895482
416.987 0.0933129
417.268 0.0973229
417.549 0.101601
417.830 0.106166
418.111 0.111053
418.392 0.116296
418.701 0.122523
419.010 0.129276
419.319 0.136619
419.627 0.144616
419.936 0.153353
420.245 0.162917
420.554 0.173424
420.863 0.184994
421.172 0.197787
421.481 0.211970
421.790 0.227759
421.945 0.236336
422.099 0.245408
422.253 0.255025
422.408 0.265227
422.562 0.276062
422.717 0.287575
422.871 0.299841
423.026 0.312910
423.180 0.326871
423.335 0.341786
423.531 0.362315
423.728 0.384763
423.924 0.409382
424.121 0.436471
424.318 0.466382
424.514 0.499530
424.711 0.536402
424.809 0.556410
424.907 0.577575
425.062 0.613398
425.216 0.652706
425.371 0.695968
425.525 0.743702
425.680 0.796623
425.834 0.855477
425.912 0.887435
425.989 0.921197
426.066 0.956951
426.143 0.994859
426.228 1.03893
426.312 1.08598
426.396 1.13642
426.480 1.19046
426.565 1.24860
426.649 1.31111
426.733 1.37863
426.775 1.41436
426.817 1.45152
426.891 1.52038
426.928 1.55671
426.965 1.59428
427.002 1.63337
427.039 1.67396
427.075 1.71611
427.112 1.75979
427.167 1.82758
427.181 1.84567
427.195 1.86418
427.246 1.93342
427.300 2.01190
427.327 2.05301
427.354 2.09542
427.382 2.13921
427.409 2.18442
427.436 2.23114
427.463 2.27942
427.502 2.35097
427.541 2.42586
427.579 2.50454
427.618 2.58726
427.656 2.67456
427.695 2.76631
427.734 2.86310
427.772 2.96532
427.792 3.01888
427.811 3.07369
427.830 3.13009
427.850 3.18815
427.869 3.24794
427.888 3.30953
427.907 3.37299
427.927 3.43842
427.946 3.50590
427.965 3.57553
427.985 3.64740
428.004 3.72163
428.023 3.79834
428.043 3.87763
428.062 3.95965
428.081 4.04453
428.101 4.13290
428.120 4.22401
428.139 4.31847
428.158 4.41648
428.178 4.51825
428.197 4.62399
428.216 4.73396
428.236 4.84841
428.255 4.96762
428.274 5.09191
428.294 5.22162
428.313 5.35711
428.332 5.49880
428.351 5.64711
428.371 5.80255
428.390 5.96562
428.409 6.13784
428.429 6.31805
428.448 6.50783
428.467 6.70795
428.487 6.91925
428.506 7.14265
428.525 7.37918
428.545 7.62994
428.564 7.89759
428.583 8.18071
428.603 8.48211
428.622 8.80340
428.641 9.14635
428.660 9.51287
428.680 9.90508
428.699 10.3253
428.718 10.7783
428.738 11.2623
428.757 11.7824
428.776 12.3417
428.796 12.9438
428.815 13.5924
428.834 14.2913
428.854 15.0450
428.873 15.8579
428.892 16.7349
428.911 17.6814
428.931 18.7027
428.950 19.8048
428.969 20.9939
428.989 22.2764
429.008 23.6591
429.023 24.8076
429.038 26.0160
429.053 27.2953
429.068 28.6491
429.083 30.0909
429.098 31.6053
429.112 33.2053
429.127 34.8948
429.142 36.6900
429.157 38.5709
429.172 40.5529
429.187 42.6401
429.202 44.8363
429.217 47.1452
429.232 49.5706
429.247 52.1162
429.266 55.5979
429.285 59.2943
429.305 63.2122
429.324 67.3578
429.343 71.7365
429.362 76.3530
429.382 81.2109
429.401 86.3127
429.420 91.6884
429.440 97.2826
429.459 103.121
429.478 109.202
429.498 115.553
429.517 122.103
429.536 128.877
429.556 135.865
429.594 150.435
429.633 165.699
429.671 181.510
429.710 197.692
429.773 224.443
429.836 250.598
429.875 265.826
429.914 280.090
429.952 293.162
429.991 304.755
430.029 314.695
430.068 322.740
430.090 326.349
430.111 329.273
430.133 331.511
430.154 333.047
430.190 334.021
430.197 333.975
430.221 333.270
430.244 331.719
430.267 329.335
430.291 326.154
430.314 322.285
430.336 317.719
430.359 312.451
430.382 306.566
430.405 299.876
430.429 292.604
430.475 276.531
430.522 258.810
430.569 239.962
430.641 209.594
430.713 179.219
430.760 160.218
430.807 142.101
430.830 133.450
430.854 125.102
430.877 117.076
430.901 109.386
430.924 102.045
430.947 95.0591
430.971 88.4325
430.994 82.1662
431.018 76.2581
431.041 70.7039
431.064 65.4967
431.088 60.6279
431.111 56.0871
431.135 51.8625
431.158 47.9412
431.181 44.3095
431.205 40.9530
431.228 37.8568
431.252 35.0061
431.275 32.3857
431.298 29.9808
431.322 27.7766
431.345 25.7590
431.369 23.9140
431.392 22.2285
431.415 20.6898
431.439 19.2858
431.462 18.0104
431.486 16.8421
431.509 15.7767
431.532 14.8048
431.556 13.9180
431.579 13.1082
431.603 12.3683
431.626 11.6915
431.649 11.0717
431.673 10.5035
431.696 9.98181
431.720 9.50202
431.743 9.06005
431.766 8.65220
431.790 8.27511
431.813 7.92581
431.837 7.60159
431.868 7.19572
431.900 6.82670
431.932 6.48992
431.964 6.18145
431.996 5.89791
432.028 5.63642
432.060 5.39447
432.092 5.16994
432.124 4.96098
432.156 4.76600
432.187 4.58362
432.219 4.41263
432.251 4.25199
432.283 4.10078
432.347 3.82351
432.394 3.63893
432.441 3.46826
432.487 3.31004
432.534 3.16300
432.581 3.02602
432.628 2.89817
432.675 2.77860
432.721 2.66658
432.768 2.56144
432.815 2.46263
432.862 2.36961
432.909 2.28193
432.955 2.19917
433.002 2.12097
433.096 1.97703
433.189 1.84748
433.283 1.73053
433.376 1.62457
433.470 1.52824
433.564 1.44038
433.657 1.36002
433.751 1.28632
433.844 1.21861
433.929 1.16159
434.015 1.10854
434.100 1.05910
434.185 1.01297
434.270 0.969785
434.355 0.929328
434.440 0.891374
434.525 0.855759
434.610 0.822216
434.695 0.790623
434.780 0.760830
434.865 0.732735
434.950 0.706150
435.035 0.680997
435.206 0.634617
435.299 0.611105
435.393 0.588885
435.580 0.547959
435.767 0.511186
435.954 0.478034
436.141 0.448013
436.329 0.420751
436.516 0.395920
436.703 0.373250
436.831 0.358886
436.958 0.345352
437.086 0.332577
437.213 0.320506
437.469 0.298276
437.724 0.278306
437.979 0.260282
438.234 0.243963
438.490 0.229134
438.745 0.215623
438.932 0.206462
439.119 0.197877
439.306 0.189822
439.493 0.182257
439.681 0.175136
439.868 0.168428
440.055 0.162102
440.242 0.156133
440.429 0.150488
440.617 0.145147
440.991 0.135297
441.365 0.126428
441.739 0.118414
442.114 0.111147
442.488 0.104540
442.863 0.0985136
443.237 0.0930035
443.611 0.0879502
443.986 0.0833071
444.360 0.0790303
444.734 0.0750879
445.092 0.0716043
445.449 0.0683634
445.806 0.0653384
446.164 0.0625124
446.521 0.0598701
446.878 0.0573977
447.236 0.0550805
447.593 0.0529058
448.308 0.0489389
449.022 0.0454194
449.737 0.0422825
450.451 0.0394748
451.200 0.0368383
451.949 0.0344721
452.697 0.0323409
453.446 0.0304151
454.195 0.0286687
454.943 0.0270807
455.692 0.0256326
456.441 0.0243089
457.666 0.0223757
458.891 0.0206971
460.116 0.0192194
461.341 0.0179147
462.566 0.0167594
463.791 0.0157321
465.016 0.0148153
466.242 0.0139942
467.739 0.0131031
469.236 0.0123176
470.734 0.0116227
472.231 0.0110062
473.728 0.0104571
475.226 0.00996697
476.723 0.00952843
478.220 0.00913515
480.943 0.00852379
483.665 0.00801669
486.388 0.00759513
489.110 0.00724696
491.833 0.00696222
494.555 0.00672975
497.278 0.00654129
500.000 0.00639242
502.737 0.00627906
505.475 0.00619734
508.212 0.00614367
510.949 0.00611662
513.960 0.00611654
516.971 0.00614415
519.982 0.00619915
522.993 0.00628174
526.004 0.00639005
529.015 0.00652618
532.025 0.00669015
535.036 0.00688242
538.047 0.00710663
541.058 0.00736288
544.069 0.00765480
547.080 0.00798675
550.091 0.00836024
553.102 0.00878305
556.113 0.00925985
559.124 0.00979629
562.135 0.0104053
565.146 0.0110926
568.157 0.0118733
571.168 0.0127659
574.179 0.0137827
577.189 0.0149562
578.695 0.0156068
580.200 0.0163132
581.706 0.0170713
583.211 0.0178836
584.717 0.0187672
586.222 0.0197288
587.728 0.0207742
589.233 0.0219134
590.739 0.0231574
592.244 0.0245198
593.750 0.0260158
595.255 0.0276629
596.761 0.0294830
598.266 0.0315000
599.771 0.0337440
601.277 0.0362502
602.030 0.0376144
602.782 0.0390606
603.535 0.0405960
604.288 0.0422272
605.041 0.0439628
605.793 0.0458124
606.546 0.0477854
607.299 0.0498928
608.257 0.0527911
609.215 0.0559581
610.173 0.0594228
611.131 0.0632122
612.089 0.0674082
613.047 0.0720510
614.005 0.0772032
614.963 0.0829424
615.716 0.0879239
616.468 0.0933771
617.221 0.0993654
617.974 0.105959
618.727 0.113246
619.479 0.121323
620.232 0.130311
620.608 0.135191
620.985 0.140354
621.601 0.149473
622.217 0.159525
622.832 0.170640
623.448 0.182973
624.064 0.196706
624.372 0.204157
624.680 0.212035
624.988 0.220384
625.296 0.229243
625.604 0.238663
625.912 0.248688
626.151 0.256937
626.391 0.265603
626.630 0.274717
626.870 0.284313
627.109 0.294426
627.349 0.305095
627.469 0.310654
627.588 0.316362
627.708 0.322236
627.828 0.328271
628.042 0.339489
628.149 0.345320
628.256 0.351298
628.363 0.357439
628.469 0.363738
628.576 0.370207
628.683 0.376852
628.777 0.382851
628.871 0.388990
628.910 0.391548
628.974 0.395869
629.030 0.399671
629.085 0.403527
629.141 0.407441
629.196 0.411405
629.299 0.418896
629.402 0.426588
629.504 0.434503
629.607 0.442634
629.710 0.451006
629.812 0.459610
629.915 0.468473
630.018 0.477587
630.154 0.490170
630.291 0.503250
630.428 0.516873
630.565 0.531049
630.633 0.538369
630.702 0.545832
630.770 0.553451
630.839 0.561232
630.907 0.569192
630.976 0.577311
631.044 0.585607
631.112 0.594084
631.206 0.606053
631.301 0.618390
631.395 0.631110
631.489 0.644230
631.583 0.657767
631.677 0.671737
631.771 0.686161
631.865 0.701058
631.959 0.716449
632.053 0.732355
632.147 0.748801
632.242 0.765811
632.336 0.783411
632.430 0.801630
632.524 0.820495
632.618 0.840018
632.712 0.860273
632.806 0.881274
632.900 0.903059
632.994 0.925668
633.088 0.949143
633.182 0.973528
633.277 0.998872
633.371 1.02523
633.465 1.05264
633.559 1.08119
633.653 1.11091
633.747 1.14189
633.841 1.17419
633.935 1.20790
634.029 1.24308
634.123 1.27980
634.217 1.31822
634.312 1.35842
634.406 1.40049
634.500 1.44457
634.594 1.49078
634.688 1.53926
634.782 1.59017
634.876 1.64360
634.970 1.69987
635.064 1.75909
635.158 1.82150
635.252 1.88732
635.347 1.95681
635.441 2.03025
635.535 2.10794
635.629 2.19014
635.723 2.27738
635.817 2.37001
635.911 2.46847
636.005 2.57327
636.099 2.68498
636.193 2.80421
636.287 2.93168
636.382 3.06816
636.476 3.21454
636.570 3.37181
636.664 3.54110
636.758 3.72368
636.852 3.92101
636.946 4.13474
637.040 4.36679
637.134 4.61906
637.181 4.75394
637.228 4.89463
637.275 5.04212
637.322 5.19620
637.370 5.35797
637.417 5.52722
637.464 5.70522
637.511 5.89176
637.558 6.08828
637.605 6.29463
637.652 6.51242
637.699 6.74154
637.746 6.98388
637.793 7.23937
637.840 7.50960
637.887 7.79577
637.932 8.08590
637.977 8.39240
638.022 8.71731
638.067 9.06215
638.112 9.42865
638.156 9.81868
638.201 10.2343
638.246 10.6780
638.291 11.1532
638.336 11.6609
638.381 12.2052
638.426 12.7896
638.471 13.4181
638.516 14.0951
638.561 14.8254
638.606 15.6143
638.653 16.5114
638.700 17.4850
638.747 18.5473
638.794 19.7029
638.841 20.9665
638.888 22.3435
638.935 23.8477
638.982 25.4913
639.029 27.2911
639.076 29.2526
639.123 31.3979
639.170 33.7318
639.217 36.2779
639.264 39.0384
639.311 42.0376
639.358 45.2735
639.405 48.7692
639.452 52.5164
639.499 56.5347
639.546 60.8073
639.594 65.3481
639.641 70.1289
639.688 75.1448
639.735 80.3757
639.782 85.8073
639.829 91.3838
639.923 102.857
640.017 114.411
640.111 125.567
640.198 135.078
640.241 139.413
640.284 143.398
640.328 146.986
640.371 150.130
640.415 152.791
640.458 154.928
640.494 156.279
640.529 157.246
640.565 157.827
640.600 158.014
640.629 157.880
640.675 157.121
640.721 155.710
640.767 153.667
640.813 151.024
640.860 147.819
640.906 144.101
640.952 139.922
640.998 135.341
641.081 126.319
641.164 116.580
641.329 96.3050
641.413 86.2643
641.497 76.7180
641.539 72.1766
641.581 67.8160
641.622 63.6479
641.664 59.6901
641.706 55.9289
641.748 52.3762
641.790 49.0318
641.832 45.9003
641.874 42.9623
641.916 40.2194
641.957 37.6644
641.999 35.2944
642.035 33.3795
642.072 31.5858
642.108 29.9073
642.144 28.3417
642.180 26.8741
642.216 25.5065
642.252 24.2254
642.289 23.0319
642.325 21.9139
642.361 20.8693
642.397 19.8930
642.433 18.9826
642.469 18.1286
642.506 17.3313
642.542 16.5823
642.578 15.8820
642.620 15.1231
642.662 14.4175
642.704 13.7604
642.745 13.1492
642.787 12.5773
642.829 12.0427
642.871 11.5422
642.913 11.0742
642.955 10.6340
642.997 10.2202
643.039 9.83085
643.080 9.46488
643.122 9.11881
643.164 8.79197
643.248 8.19110
643.294 7.88945
643.339 7.60466
643.431 7.08124
643.522 6.61095
643.613 6.18758
643.705 5.80413
643.796 5.45637
643.887 5.13925
643.979 4.84981
644.062 4.60552
644.146 4.37980
644.230 4.17028
644.314 3.97588
644.397 3.79474
644.481 3.62605
644.565 3.46831
644.649 3.32093
644.732 3.18269
644.816 3.05313
644.900 2.93127
644.984 2.81676
645.067 2.70877
645.151 2.60704
645.235 2.51088
645.319 2.42009
645.486 2.25269
645.654 2.10221
645.821 1.96641
645.989 1.84345
646.156 1.73174
646.324 1.62995
646.491 1.53693
646.659 1.45171
646.796 1.38717
646.933 1.32690
647.070 1.27047
647.207 1.21762
647.344 1.16798
647.481 1.12136
647.618 1.07747
647.755 1.03612
647.892 0.997067
648.029 0.960212
648.166 0.925339
648.303 0.892358
648.577 0.831461
648.851 0.776627
649.019 0.745743
649.186 0.716671
649.354 0.689272
649.521 0.663420
649.689 0.638999
649.856 0.615907
650.191 0.573336
650.526 0.535044
650.861 0.500476
651.196 0.469163
651.531 0.440709
651.927 0.410310
652.323 0.382963
652.719 0.358275
653.115 0.335920
653.511 0.315625
653.907 0.297139
654.303 0.280232
654.698 0.264718
655.033 0.252575
655.368 0.241251
655.703 0.230678
656.038 0.220792
656.373 0.211533
656.708 0.202851
657.043 0.194699
657.378 0.187034
657.713 0.179818
658.048 0.173018
658.383 0.166603
658.718 0.160543
659.388 0.149391
660.058 0.139384
660.728 0.130370
661.398 0.122224
662.068 0.114839
662.738 0.108125
663.408 0.102004
664.078 0.0964099
664.748 0.0912855
665.418 0.0865816
665.966 0.0830144
666.515 0.0796798
667.063 0.0765642
667.611 0.0736524
668.159 0.0709133
668.707 0.0683338
669.256 0.0659076
669.804 0.0636263
670.352 0.0614784
670.900 0.0594558
671.996 0.0557539
673.093 0.0524631
674.189 0.0495364
674.859 0.0479103
675.529 0.0463981
676.199 0.0449935
676.869 0.0436910
678.209 0.0413729
679.549 0.0394144
680.889 0.0377968
682.229 0.0365146
683.569 0.0355750
684.909 0.0350024
685.883 0.0348417
686.675 0.0348902
687.467 0.0351164
688.259 0.0355425
689.050 0.0362202
689.842 0.0371923
690.634 0.0385189
691.426 0.0402857
692.218 0.0426104
692.614 0.0440294
693.009 0.0456518
693.405 0.0475107
693.801 0.0496487
694.197 0.0521150
694.593 0.0549676
694.989 0.0582791
695.385 0.0621416
695.674 0.0653800
695.964 0.0690304
696.253 0.0731621
696.542 0.0778580
696.832 0.0832218
697.121 0.0893770
697.410 0.0964871
697.699 0.104759
697.867 0.110180
698.034 0.116141
698.202 0.122714
698.369 0.129986
698.537 0.138058
698.704 0.147053
698.872 0.157116
699.039 0.168418
699.199 0.180573
699.359 0.194291
699.519 0.209855
699.679 0.227608
699.839 0.248019
699.919 0.259397
699.999 0.271649
700.079 0.284905
700.159 0.299244
700.238 0.314815
700.318 0.331770
700.402 0.351237
700.486 0.372650
700.570 0.396360
700.653 0.422678
700.737 0.452139
700.821 0.485283
700.905 0.523007
700.988 0.566347
701.030 0.590645
701.072 0.617015
701.114 0.645774
701.156 0.677232
701.198 0.712013
701.240 0.750629
701.282 0.793792
701.323 0.842255
701.365 0.897319
701.407 0.960185
701.449 1.03245
701.491 1.11584
701.512 1.16271
701.533 1.21310
701.554 1.26786
701.575 1.32687
701.596 1.39113
701.617 1.46052
701.637 1.53584
701.658 1.61768
701.685 1.73266
701.712 1.86016
701.738 2.00268
701.765 2.16084
701.792 2.33771
701.818 2.53397
701.832 2.64112
701.845 2.75333
701.858 2.87171
701.872 2.99655
701.885 3.12922
701.898 3.26807
701.912 3.41442
701.925 3.56864
701.938 3.73237
701.952 3.90354
701.965 4.08377
701.978 4.27347
701.992 4.47461
702.005 4.68464
702.018 4.90546
702.031 5.13756
702.045 5.38140
702.058 5.63748
702.071 5.90630
702.085 6.18837
702.106 6.66198
702.127 7.16951
702.148 7.71793
702.168 8.30419
702.189 8.93611
702.210 9.60988
702.231 10.3306
702.252 11.1006
702.273 11.9259
702.294 12.8010
702.315 13.7364
702.336 14.7251
702.357 15.7787
702.378 16.8890
702.399 18.0626
702.420 19.3010
702.438 20.4270
702.456 21.6036
702.474 22.8315
702.492 24.1111
702.510 25.4430
702.528 26.8274
702.546 28.2645
702.564 29.7458
702.582 31.2875
702.601 32.8812
702.637 36.2219
702.673 39.7604
702.709 43.4751
702.749 47.7903
702.789 52.2788
702.829 56.9322
702.869 61.6908
702.915 67.2303
702.975 74.6419
703.059 84.5633
703.101 89.2684
703.143 93.7090
703.189 98.1725
703.230 101.840
703.272 105.056
703.314 107.759
703.356 109.899
703.398 111.449
703.438 112.356
703.480 112.667
703.487 112.656
703.510 112.501
703.532 112.161
703.572 111.116
703.612 109.508
703.652 107.372
703.688 104.989
703.724 102.230
703.764 98.7878
703.804 94.9832
703.851 90.0768
703.898 84.8333
703.938 80.1804
703.978 75.4163
704.057 65.7283
704.137 56.1694
704.177 51.5539
704.217 47.1076
704.251 43.4144
704.286 39.8767
704.320 36.5071
704.354 33.3152
704.389 30.3075
704.423 27.4882
704.458 24.8585
704.492 22.4176
704.512 21.0843
704.532 19.8192
704.552 18.6146
704.572 17.4693
704.592 16.3767
704.612 15.3462
704.631 14.3707
704.651 13.4485
704.671 12.5738
704.691 11.7534
704.711 10.9810
704.731 10.2548
704.751 9.56958
704.771 8.93023
704.791 8.33133
704.811 7.77098
704.836 7.10880
704.862 6.50251
704.874 6.21916
704.887 5.94838
704.900 5.68972
704.912 5.44464
704.925 5.20881
704.938 4.98380
704.950 4.76919
704.963 4.56614
704.976 4.37103
704.988 4.18513
705.001 4.00805
705.014 3.84073
705.026 3.68014
705.039 3.52731
705.052 3.38190
705.064 3.24357
705.077 3.11201
705.090 2.98692
705.103 2.86800
705.115 2.75583
705.141 2.54623
705.166 2.35771
705.191 2.18687
705.217 2.03328
705.237 1.92250
705.256 1.82082
705.276 1.72696
705.296 1.64030
705.316 1.55987
705.336 1.48594
705.356 1.41757
705.376 1.35432
705.396 1.29546
705.416 1.24119
705.436 1.19084
705.456 1.14408
705.496 1.05994
705.535 0.987025
705.575 0.923172
705.615 0.867199
705.655 0.817576
705.695 0.773522
705.735 0.733963
705.774 0.698396
705.814 0.666140
705.854 0.636720
705.894 0.609679
705.934 0.584770
706.014 0.540357
706.093 0.501752
706.173 0.467782
706.253 0.437601
706.332 0.410578
706.412 0.386230
706.492 0.364178
706.568 0.344985
706.644 0.327392
706.720 0.311211
706.796 0.296308
706.872 0.282508
706.948 0.269718
707.100 0.246793
707.253 0.226842
707.405 0.209381
707.557 0.193992
707.709 0.180353
707.868 0.167653
708.028 0.156344
708.187 0.146227
708.346 0.137138
708.506 0.128940
708.665 0.121518
708.825 0.114777
708.984 0.108634
709.259 0.0992313
709.535 0.0911184
709.810 0.0840617
710.085 0.0778813
710.361 0.0724358
710.636 0.0676118
710.911 0.0633173
711.187 0.0594767
711.505 0.0555140
711.824 0.0519959
712.143 0.0488567
712.462 0.0460429
712.781 0.0435098
713.099 0.0412206
713.737 0.0372564
714.316 0.0342314
714.896 0.0316396
715.476 0.0293967
716.055 0.0274421
716.635 0.0257274
717.214 0.0242130
717.794 0.0228672
718.374 0.0216646
719.185 0.0201823
719.997 0.0188947
720.808 0.0177668
721.620 0.0167725
722.431 0.0158915
723.243 0.0151007
724.865 0.0137423
726.141 0.0128440
727.416 0.0120625
728.691 0.0113759
729.966 0.0107675
732.516 0.00973569
735.067 0.00889359
737.617 0.00819068
740.167 0.00759057
742.717 0.00707323
745.268 0.00662277
747.818 0.00622508
750.368 0.00587218
752.919 0.00555638
755.469 0.00527160
759.642 0.00486242
763.815 0.00451253
767.989 0.00420685
772.162 0.00393862
776.335 0.00370171
780.508 0.00349137
784.681 0.00330391
788.855 0.00313642
793.955 0.00295567
799.056 0.00279588
804.156 0.00265498
809.257 0.00253129
819.458 0.00232515
829.659 0.00216693
837.079 0.00207827
844.498 0.00201031
851.917 0.00196307
859.336 0.00193821
867.682 0.00194083
876.029 0.00198569
884.375 0.00208948
888.548 0.00217501
892.721 0.00229217
896.663 0.00244239
900.604 0.00264634
904.546 0.00292611
908.487 0.00332273
911.037 0.00367107
913.587 0.00412440
916.138 0.00472780
918.688 0.00555215
919.963 0.00608182
921.238 0.00671979
922.514 0.00749568
923.789 0.00845187
925.064 0.00964885
926.339 0.0111744
927.614 0.0131610
928.252 0.0143873
928.889 0.0158127
929.585 0.0176495
930.280 0.0198611
930.976 0.0225583
931.671 0.0258925
932.309 0.0296934
932.947 0.0344545
933.265 0.0373004
933.584 0.0405318
933.903 0.0442222
934.222 0.0484620
934.454 0.0519578
934.685 0.0558588
934.917 0.0602346
935.149 0.0651626
935.381 0.0707471
935.613 0.0771074
935.845 0.0844048
936.076 0.0928294
936.236 0.0994067
936.395 0.106738
936.555 0.114945
936.714 0.124178
936.873 0.134621
937.033 0.146504
937.192 0.160116
937.352 0.175819
937.496 0.192334
937.641 0.211480
937.786 0.233920
937.931 0.260621
938.004 0.276017
938.076 0.293077
938.149 0.312195
938.221 0.333774
938.293 0.358496
938.366 0.387132
938.438 0.420914
938.511 0.461325
938.551 0.487201
938.590 0.516120
938.630 0.548764
938.670 0.585599
938.710 0.627552
938.750 0.675281
938.790 0.730042
938.830 0.792739
938.869 0.865055
938.909 0.948203
938.949 1.04441
938.989 1.15526
939.029 1.28366
939.049 1.35497
939.069 1.43160
939.089 1.51435
939.109 1.60281
939.128 1.69779
939.148 1.79975
939.167 1.89950
939.185 2.00524
939.203 2.11791
939.221 2.23789
939.239 2.36633
939.257 2.50226
939.275 2.64682
939.293 2.80047
939.312 2.96462
939.330 3.13797
939.348 3.32191
939.366 3.51697
939.384 3.72368
939.402 3.94260
939.420 4.17429
939.438 4.41933
939.456 4.67978
939.475 4.95338
939.493 5.24211
939.511 5.54659
939.529 5.86742
939.547 6.20523
939.565 6.56062
939.583 6.93421
939.601 7.32883
939.619 7.74074
939.638 8.17266
939.656 8.62517
939.674 9.09883
939.692 9.59419
939.710 10.1118
939.728 10.6521
939.748 11.2762
939.768 11.9259
939.788 12.6049
939.808 13.3135
939.828 14.0561
939.848 14.8255
939.868 15.6258
939.887 16.4571
939.907 17.3240
939.927 18.2179
939.967 20.0990
940.007 22.1033
940.047 24.2274
940.078 25.9503
940.108 27.7388
940.139 29.5890
940.170 31.4962
940.201 33.4552
940.232 35.4597
940.293 39.5771
940.358 44.0323
940.424 48.5014
940.442 49.7383
940.489 52.8864
940.568 57.9787
940.608 60.3601
940.648 62.5912
940.688 64.6545
940.728 66.5279
940.768 68.1943
940.808 69.6298
940.847 70.8153
940.887 71.7407
940.927 72.3965
940.966 72.7651
941.000 72.8681
941.007 72.8633
941.029 72.7887
941.052 72.6254
941.091 72.1212
941.131 71.3426
941.170 70.3006
941.206 69.1349
941.242 67.7725
941.282 66.0620
941.321 64.1532
941.368 61.6583
941.415 58.9456
941.455 56.5090
941.494 53.9685
941.573 48.6795
941.652 43.2540
941.732 37.8723
941.800 33.3759
941.834 31.2077
941.868 29.1102
941.903 27.0783
941.937 25.1299
941.971 23.2583
942.005 21.4783
942.045 19.5228
942.084 17.6896
942.124 15.9797
942.144 15.1710
942.163 14.3966
942.183 13.6486
942.203 12.9304
942.223 12.2419
942.242 11.5825
942.262 10.9516
942.282 10.3488
942.302 9.77342
942.322 9.22749
942.347 8.56669
942.372 7.94667
942.397 7.36588
942.422 6.82274
942.448 6.31563
942.473 5.84290
942.498 5.40290
942.523 4.99555
942.548 4.61596
942.573 4.26420
942.599 3.93868
942.624 3.63784
942.649 3.36018
942.674 3.10421
942.699 2.86854
942.725 2.65261
942.744 2.49467
942.764 2.34699
942.784 2.20900
942.804 2.08013
942.824 1.95984
942.843 1.84761
942.863 1.74294
942.883 1.64585
942.903 1.55489
942.922 1.47016
942.942 1.39125
942.962 1.31777
943.002 1.18568
943.041 1.07149
943.081 0.972264
943.120 0.886223
943.160 0.811529
943.199 0.746730
943.239 0.690109
943.279 0.640749
943.318 0.597362
943.358 0.559280
943.397 0.525545
943.437 0.495608
943.476 0.468916
943.516 0.444999
943.595 0.403960
943.674 0.370041
943.754 0.341389
943.833 0.316825
943.912 0.295391
943.991 0.276501
944.128 0.248456
944.264 0.224943
944.401 0.204883
944.538 0.187559
944.675 0.172461
944.811 0.159198
944.948 0.147469
945.085 0.137038
945.243 0.126332
945.401 0.116873
945.560 0.108471
945.718 0.100969
945.876 0.0942421
946.034 0.0881847
946.351 0.0777434
946.581 0.0713019
946.812 0.0656532
947.042 0.0606665
947.272 0.0562444
947.502 0.0523001
947.733 0.0487692
948.193 0.0427261
948.510 0.0392182
948.826 0.0361385
949.143 0.0334200
949.459 0.0310080
950.093 0.0269332
950.726 0.0236421
951.417 0.0207245
952.107 0.0183423
952.798 0.0163726
953.489 0.0147252
954.122 0.0134387
954.755 0.0123262
956.022 0.0105115
957.288 0.00910656
958.554 0.00799664
959.936 0.00703223
961.318 0.00625905
962.699 0.00563023
964.081 0.00511282
966.613 0.00437095
969.146 0.00382170
971.679 0.00340423
974.212 0.00307995
978.356 0.00268854
982.501 0.00241108
986.645 0.00220919
990.790 0.00205971
995.395 0.00193732
1000.00 0.00184856
1005.33 0.00177752
1010.65 0.00173077
1021.31 0.00169805
1029.74 0.00172079
1038.17 0.00178657
1046.61 0.00190568
1055.04 0.00209974
1059.92 0.00226354
1064.80 0.00248265
1069.69 0.00278167
1074.57 0.00320077
1077.01 0.00347590
1079.45 0.00381278
1081.89 0.00423020
1084.33 0.00475594
1086.44 0.00532839
1088.55 0.00605034
1090.66 0.00697897
1092.77 0.00819877
1093.99 0.00909318
1095.21 0.0101711
1096.43 0.0114864
1097.65 0.0131131
1098.82 0.0150587
1099.98 0.0175229
1100.56 0.0190115
1101.15 0.0207106
1101.73 0.0226680
1102.31 0.0249316
1102.92 0.0277204
1103.53 0.0310318
1104.14 0.0350106
1104.75 0.0398493
1105.36 0.0458275
1105.67 0.0493497
1105.97 0.0533104
1106.28 0.0577861
1106.58 0.0628711
1106.89 0.0686820
1107.19 0.0753649
1107.40 0.0805420
1107.61 0.0862596
1107.82 0.0926282
1108.03 0.0997533
1108.23 0.107763
1108.44 0.116814
1108.65 0.127100
1108.86 0.138863
1109.01 0.148634
1109.16 0.159444
1109.32 0.171615
1109.47 0.185209
1109.62 0.200678
1109.77 0.218162
1109.93 0.238332
1110.08 0.261499
1110.23 0.288749
1110.38 0.321069
1110.46 0.339759
1110.54 0.360169
1110.61 0.382905
1110.69 0.408454
1110.77 0.437870
1110.84 0.471255
1110.92 0.510115
1110.99 0.555987
1111.07 0.611722
1111.11 0.643499
1111.15 0.678646
1111.19 0.717646
1111.22 0.761055
1111.26 0.809507
1111.30 0.863725
1111.34 0.931352
1111.38 1.00830
1111.43 1.09601
1111.47 1.19359
1111.51 1.30764
1111.55 1.43472
1111.57 1.50654
1111.59 1.58333
1111.61 1.66545
1111.63 1.74891
1111.65 1.84244
1111.67 1.94238
1111.70 2.04916
1111.72 2.15759
1111.74 2.27896
1111.76 2.40849
1111.78 2.54666
1111.80 2.68677
1111.82 2.84332
1111.84 3.01009
1111.86 3.18763
1111.88 3.36728
1111.90 3.56758
1111.92 3.78044
1111.94 4.00650
1111.96 4.23466
1111.98 4.42662
1112.00 4.62729
1112.01 4.83697
1112.03 5.04201
1112.04 5.27003
1112.06 5.49281
1112.07 5.74034
1112.09 5.98196
1112.11 6.25018
1112.12 6.52955
1112.14 6.82039
1112.15 7.10374
1112.18 7.72323
1112.21 8.39029
1112.25 9.13106
1112.28 9.90140
1112.31 10.7256
1112.34 11.6056
1112.37 12.5741
1112.40 13.5722
1112.43 14.6304
1112.46 15.7496
1112.50 17.0089
1112.53 18.3384
1112.56 19.7381
1112.60 21.2073
1112.63 22.7449
1112.66 24.3492
1112.70 26.0178
1112.73 27.7476
1112.76 29.5351
1112.79 31.3758
1112.80 31.5456
1112.80 31.9434
1112.81 32.2860
1112.82 32.9758
1112.85 34.3722
1112.91 37.8877
1112.96 41.4263
1113.12 50.8141
1113.18 54.7096
1113.25 58.3934
1113.32 62.2637
1113.36 64.0569
1113.40 65.6585
1113.44 67.1025
1113.48 68.3765
1113.53 69.8245
1113.57 70.6542
1113.61 71.2825
1113.65 71.7281
1113.70 71.9387
1113.70 71.9396
1113.71 71.9344
1113.73 71.8522
1113.76 71.6706
1113.81 71.1239
1113.85 70.3107
1113.90 69.0364
1113.94 67.6658
1113.99 66.0610
1114.03 64.2406
1114.08 62.2731
1114.14 59.0455
1114.20 55.5824
1114.29 50.4695
1114.38 45.1468
1114.46 39.7949
1114.55 34.6328
1114.59 32.1984
1114.63 29.8382
1114.68 27.5630
1114.72 25.4324
1114.76 23.3497
1114.80 21.4191
1114.84 19.5505
1114.88 17.8349
1114.93 16.1143
1114.97 14.5529
1114.99 13.7994
1115.01 13.0763
1115.04 12.3832
1115.06 11.7490
1115.08 11.1130
1115.10 10.5054
1115.12 9.92550
1115.14 9.39731
1115.17 8.86980
1115.19 8.39028
1115.21 7.91236
1115.23 7.47876
1115.26 6.85894
1115.29 6.28629
1115.33 5.75830
1115.36 5.28701
1115.39 4.83957
1115.42 4.44163
1115.45 4.06514
1115.48 3.73141
1115.50 3.57040
1115.51 3.41667
1115.55 3.12996
1115.58 2.86916
1115.61 2.63930
1115.64 2.42367
1115.67 2.23404
1115.70 2.05651
1115.74 1.90066
1115.76 1.79893
1115.78 1.70402
1115.80 1.61552
1115.82 1.53662
1115.84 1.45943
1115.87 1.38747
1115.91 1.26059
1115.95 1.14752
1116.00 1.05123
1116.04 0.965253
1116.08 0.891808
1116.13 0.825965
1116.17 0.769438
1116.21 0.718460
1116.26 0.674397
1116.30 0.634356
1116.34 0.599460
1116.39 0.567471
1116.43 0.539334
1116.52 0.490178
1116.61 0.449231
1116.69 0.414512
1116.78 0.384600
1116.87 0.358471
1116.95 0.335381
1117.04 0.314779
1117.13 0.296252
1117.21 0.280219
1117.29 0.265569
1117.46 0.239749
1117.63 0.217728
1117.79 0.198750
1117.96 0.182249
1118.12 0.167796
1118.29 0.155053
1118.46 0.143754
1118.63 0.133226
1118.80 0.123846
1118.98 0.115449
1119.15 0.107902
1119.50 0.0949208
1119.85 0.0842314
1120.10 0.0775648
1120.35 0.0716801
1120.61 0.0664580
1120.86 0.0618013
1121.36 0.0538779
1121.87 0.0474207
1122.22 0.0436486
1122.57 0.0403228
1122.91 0.0373755
1123.26 0.0347511
1123.96 0.0302962
1124.65 0.0266824
1125.48 0.0232154
1126.30 0.0204188
1127.12 0.0181288
1127.94 0.0162271
1128.64 0.0148571
1129.33 0.0136675
1130.73 0.0117165
1132.12 0.0101939
1133.51 0.00898485
1135.15 0.00785049
1136.80 0.00695301
1138.44 0.00623227
1140.09 0.00564298
1142.87 0.00486573
1145.65 0.00428690
1148.44 0.00384546
1151.22 0.00350222
1155.52 0.00310704
1159.82 0.00282552
1164.12 0.00261909
1168.42 0.00246656
1176.01 0.00228672
1183.60 0.00218332
1191.19 0.00212836
1198.78 0.00210882
1209.91 0.00212708
1221.05 0.00218844
1232.18 0.00228642
1243.31 0.00241974
1254.44 0.00259070
1265.57 0.00280414
1276.71 0.00306842
1287.84 0.00339741
1297.45 0.00375102
1307.07 0.00419017
1311.87 0.00445223
1316.68 0.00475218
1321.49 0.00509637
1326.29 0.00550136
1331.35 0.00601398
1336.41 0.00665111
1338.94 0.00703518
1341.47 0.00747818
1344.00 0.00799640
1346.53 0.00861362
1349.06 0.00937489
1351.59 0.0103398
1354.12 0.0116140
1355.39 0.0124194
1356.65 0.0133829
1358.05 0.0146966
1359.44 0.0163790
1360.83 0.0186094
1361.53 0.0200164
1362.22 0.0216847
1363.04 0.0241048
1363.87 0.0271827
1364.69 0.0312128
1365.10 0.0337196
1365.51 0.0366586
1365.86 0.0395660
1366.21 0.0429498
1366.55 0.0469248
1366.90 0.0516432
1367.25 0.0573108
1367.60 0.0642127
1367.95 0.0727564
1368.29 0.0835090
1368.47 0.0900110
1368.64 0.0974589
1368.81 0.106069
1368.99 0.116128
1369.16 0.128055
1369.34 0.142498
1369.51 0.160547
1369.60 0.171486
1369.68 0.184171
1369.76 0.197823
1369.84 0.213729
1369.92 0.232763
1370.00 0.255886
1370.08 0.284372
1370.16 0.319904
1370.24 0.364675
1370.32 0.421526
1370.36 0.456037
1370.40 0.494080
1370.44 0.538219
1370.48 0.586909
1370.52 0.643404
1370.55 0.705694
1370.59 0.777899
1370.63 0.857394
1370.67 0.949366
1370.71 1.05039
1370.75 1.16696
1370.79 1.29460
1370.83 1.44139
1370.87 1.60155
1370.91 1.78501
1370.95 1.98435
1370.97 2.10638
1370.99 2.23575
1371.02 2.37280
1371.04 2.51110
1371.06 2.66415
1371.08 2.82591
1371.10 2.99675
1371.12 3.16861
1371.15 3.35822
1371.17 3.55797
1371.19 3.76822
1371.21 3.97905
1371.23 4.21088
1371.25 4.45427
1371.28 4.70958
1371.30 4.96469
1371.32 5.24424
1371.34 5.53667
1371.36 5.84228
1371.38 6.14657
1371.41 6.47878
1371.43 6.82497
1371.47 7.54290
1371.52 8.33530
1371.56 9.16725
1371.60 10.0781
1371.65 11.0265
1371.69 12.1526
1371.74 13.3227
1371.79 14.5840
1371.84 15.8802
1371.88 17.2619
1371.93 18.6655
1371.98 20.1124
1372.02 21.5948
1372.09 23.6538
1372.15 25.7036
1372.28 29.7593
1372.32 31.1268
1372.33 31.2491
1372.34 31.6744
1372.35 32.0651
1372.39 33.0653
1372.42 34.0303
1372.47 35.4268
1372.52 36.6884
1372.57 37.6575
1372.61 38.5308
1372.68 39.6971
1372.72 40.2884
1372.76 40.7690
1372.81 41.1126
1372.83 41.2584
1372.86 41.3704
1372.90 41.4152
1372.91 41.4132
1372.93 41.3866
1372.95 41.3288
1372.99 41.1515
1373.02 40.8963
1373.06 40.4687
1373.13 39.5302
1373.21 38.2415
1373.26 37.1327
1373.31 35.8908
1373.38 33.9816
1373.45 31.8937
1373.55 29.0413
1373.64 26.1062
1373.78 21.4499
1373.85 19.1994
1373.92 17.0729
1373.97 15.6719
1374.02 14.3325
1374.07 13.0598
1374.12 11.8575
1374.17 10.7282
1374.22 9.67319
1374.24 9.16373
1374.27 8.69292
1374.29 8.22144
1374.32 7.78685
1374.35 7.16769
1374.39 6.58708
1374.42 6.04407
1374.46 5.53754
1374.50 5.06625
1374.53 4.62885
1374.57 4.22389
1374.60 3.84988
1374.64 3.50526
1374.68 3.18846
1374.71 2.89789
1374.75 2.63196
1374.78 2.38910
1374.82 2.16778
1374.86 1.96648
1374.89 1.78859
1374.92 1.65805
1374.95 1.53728
1374.97 1.42566
1375.00 1.32614
1375.03 1.23081
1375.06 1.14295
1375.09 1.06206
1375.11 0.990176
1375.14 0.921539
1375.17 0.858478
1375.22 0.749258
1375.28 0.655538
1375.33 0.578080
1375.39 0.511758
1375.45 0.456985
1375.50 0.410050
1375.56 0.371194
1375.61 0.337758
1375.67 0.309913
1375.72 0.285765
1375.78 0.265463
1375.85 0.243033
1375.92 0.224351
1375.99 0.208602
1376.07 0.195158
1376.21 0.173373
1376.35 0.156457
1376.50 0.142628
1376.64 0.131087
1376.79 0.121255
1376.93 0.112810
1377.19 0.0999496
1377.45 0.0896803
1377.71 0.0812937
1377.97 0.0743499
1378.24 0.0685155
1378.50 0.0636049
1378.76 0.0594224
1379.02 0.0558365
1379.36 0.0518945
1379.70 0.0486217
1380.04 0.0458893
1380.38 0.0436055
1381.06 0.0400651
1381.74 0.0375795
1382.47 0.0357690
1383.20 0.0346626
1383.93 0.0341320
1384.66 0.0340863
1385.29 0.0343937
1385.92 0.0350173
1386.55 0.0359732
1387.17 0.0372838
1387.80 0.0389838
1388.43 0.0411282
1389.05 0.0437969
1389.68 0.0471007
1390.36 0.0515825
1391.04 0.0572738
1391.38 0.0607072
1391.72 0.0646204
1392.06 0.0691011
1392.40 0.0742428
1392.69 0.0792416
1392.97 0.0849102
1393.26 0.0914196
1393.55 0.0988896
1393.84 0.107583
1394.12 0.117711
1394.41 0.129699
1394.70 0.143941
1394.89 0.155306
1395.09 0.168309
1395.29 0.183295
1395.48 0.200719
1395.68 0.221191
1395.87 0.245553
1395.97 0.259558
1396.07 0.275046
1396.17 0.292288
1396.27 0.311636
1396.41 0.344908
1396.48 0.364287
1396.55 0.385979
1396.63 0.410473
1396.70 0.438392
1396.77 0.470532
1396.84 0.507348
1396.91 0.551149
1396.99 0.603085
1397.06 0.665206
1397.09 0.700866
1397.13 0.740078
1397.17 0.783263
1397.20 0.830884
1397.24 0.883453
1397.27 0.941537
1397.31 1.00576
1397.35 1.07681
1397.38 1.15543
1397.42 1.23990
1397.44 1.30012
1397.46 1.36436
1397.49 1.43289
1397.51 1.50598
1397.53 1.58392
1397.55 1.66700
1397.58 1.75554
1397.60 1.84565
1397.62 1.94584
1397.65 2.05251
1397.67 2.16602
1397.69 2.28676
1397.71 2.41512
1397.74 2.55152
1397.76 2.69639
1397.78 2.84327
1397.81 3.00597
1397.83 3.17845
1397.85 3.36119
1397.87 3.55468
1397.90 3.75940
1397.92 3.97585
1397.94 4.20453
1397.97 4.43519
1397.99 4.68928
1398.01 4.95714
1398.03 5.23926
1398.06 5.53617
1398.08 5.84838
1398.10 6.17640
1398.13 6.52073
1398.15 6.86580
1398.17 7.19319
1398.19 7.53393
1398.21 7.88833
1398.23 8.23791
1398.25 8.61974
1398.27 8.99586
1398.31 9.80965
1398.34 10.6809
1398.38 11.6110
1398.42 12.6008
1398.46 13.6511
1398.51 14.9679
1398.52 15.2653
1398.53 15.6882
1398.56 16.5573
1398.59 17.4242
1398.63 18.7936
1398.67 20.2248
1398.71 21.7148
1398.75 23.2214
1398.79 24.6185
1398.82 26.0509
1398.89 29.0049
1398.97 32.0451
1399.04 35.0837
1399.18 41.1635
1399.25 44.0474
1399.32 46.7474
1399.40 49.3957
1399.47 51.5246
1399.55 53.2976
1399.62 54.6710
1399.68 55.4629
1399.73 55.9091
1399.79 56.1514
1399.80 56.1556
1399.81 56.1537
1399.82 56.1326
1399.84 56.0882
1399.87 55.9296
1399.93 55.4307
1399.98 54.6410
1400.04 53.6212
1400.09 52.4625
1400.14 51.1137
1400.20 49.4335
1400.25 47.6032
1400.32 45.0174
1400.39 42.2325
1400.51 37.5747
1400.62 32.8288
1400.73 28.1087
1400.78 25.8283
1400.84 23.6634
1400.89 21.8085
1400.94 20.0671
1400.98 18.4065
1401.03 16.8316
1401.08 15.3455
1401.13 13.9503
1401.18 12.6468
1401.22 11.4347
1401.25 10.7695
1401.28 10.1345
1401.31 9.52941
1401.34 8.95363
1401.36 8.40654
1401.39 7.88746
1401.42 7.39564
1401.45 6.94647
1401.48 6.50588
1401.50 6.09011
1401.53 5.69828
1401.56 5.32947
1401.59 4.98277
1401.62 4.65725
1401.64 4.35198
1401.67 4.07592
1401.71 3.73436
1401.74 3.42966
1401.78 3.14257
1401.81 2.88728
1401.85 2.64749
1401.88 2.43490
1401.92 2.23574
1401.95 2.05962
1401.99 1.89503
1402.03 1.74977
1402.06 1.61426
1402.10 1.49488
1402.13 1.38365
1402.17 1.28576
1402.20 1.19703
1402.24 1.11663
1402.29 1.00337
1402.35 0.906548
1402.41 0.823675
1402.46 0.753769
1402.52 0.692463
1402.57 0.639547
1402.63 0.593681
1402.68 0.554404
1402.74 0.519349
1402.80 0.488486
1402.85 0.461151
1402.91 0.437205
1403.02 0.395593
1403.13 0.361648
1403.24 0.332853
1403.35 0.308220
1403.47 0.286828
1403.58 0.268182
1403.69 0.251474
1403.80 0.236656
1403.91 0.223192
1404.02 0.211112
1404.24 0.190874
1404.45 0.173780
1404.66 0.159183
1404.87 0.146658
1405.09 0.135724
1405.30 0.126160
1405.51 0.117744
1405.72 0.110330
1405.97 0.102801
1406.21 0.0962054
1406.45 0.0903725
1406.70 0.0851893
1407.18 0.0764018
1407.67 0.0693106
1408.12 0.0639348
1408.56 0.0594113
1409.01 0.0555745
1409.45 0.0522982
1409.90 0.0494840
1410.35 0.0470542
1411.24 0.0431140
1412.01 0.0404771
1412.78 0.0383811
1413.55 0.0367015
1414.32 0.0353554
1415.09 0.0342811
1415.86 0.0334336
1417.40 0.0322734
1419.02 0.0316474
1420.64 0.0314821
1422.43 0.0317033
1424.21 0.0322840
1425.99 0.0331779
1427.78 0.0343590
1429.56 0.0358189
1431.35 0.0375590
1433.13 0.0395917
1434.91 0.0419370
1436.70 0.0446285
1438.48 0.0477059
1440.26 0.0512219
1442.05 0.0552408
1443.83 0.0598503
1444.72 0.0624077
1445.62 0.0651534
1446.51 0.0681051
1447.40 0.0712821
1448.29 0.0747028
1449.18 0.0783792
1450.07 0.0823593
1450.97 0.0866833
1451.86 0.0913807
1452.75 0.0964906
1453.64 0.102062
1454.53 0.108149
1455.43 0.114819
1456.32 0.122138
1456.89 0.127185
1457.45 0.132547
1458.02 0.138271
1458.59 0.144370
1459.16 0.150905
1459.44 0.154346
1459.72 0.157896
1460.01 0.161586
1460.29 0.165409
1460.57 0.169373
1460.86 0.173468
1461.18 0.178360
1461.51 0.183448
1461.83 0.188777
1462.16 0.194327
1462.48 0.200146
1462.80 0.206214
1462.97 0.209353
1463.13 0.212565
1463.29 0.215853
1463.45 0.219219
1463.57 0.221807
1463.70 0.224442
1463.82 0.227124
1463.94 0.229834
1464.04 0.232041
1464.06 0.232500
1464.10 0.233538
1464.18 0.235425
1464.26 0.237335
1464.35 0.239292
1464.43 0.241250
1464.59 0.245239
1464.75 0.249329
1464.91 0.253524
1465.14 0.259474
1465.36 0.265639
1465.58 0.272028
1465.80 0.278652
1466.03 0.285524
1466.25 0.292654
1466.47 0.300058
1466.70 0.307712
1466.92 0.315703
1467.14 0.324011
1467.36 0.332654
1467.59 0.341650
1467.81 0.351019
1468.03 0.360781
1468.26 0.370958
1468.37 0.376234
1468.48 0.381576
1468.59 0.387082
1468.70 0.392659
1468.81 0.398409
1468.93 0.404235
1469.04 0.410244
1469.15 0.416333
1469.26 0.422617
1469.37 0.428986
1469.48 0.435561
1469.59 0.442229
1469.71 0.449114
1469.82 0.456097
1469.93 0.463312
1470.04 0.470633
1470.15 0.478198
1470.26 0.485877
1470.38 0.493817
1470.49 0.501879
1470.60 0.510217
1470.71 0.518689
1470.82 0.527453
1470.93 0.536362
1471.04 0.545582
1471.16 0.554958
1471.38 0.574542
1471.60 0.595187
1471.82 0.616971
1472.05 0.639871
1472.27 0.664189
1472.49 0.689926
1472.72 0.717194
1472.94 0.746118
1473.16 0.776835
1473.38 0.809496
1473.61 0.844269
1473.83 0.881340
1474.05 0.920917
1474.28 0.963231
1474.39 0.985595
1474.50 1.00854
1474.61 1.03252
1474.72 1.05713
1474.83 1.08288
1474.95 1.10934
1475.06 1.13703
1475.17 1.16552
1475.28 1.19537
1475.39 1.22610
1475.50 1.25832
1475.61 1.29154
1475.73 1.32640
1475.84 1.36237
1475.95 1.40018
1476.06 1.43922
1476.17 1.48031
1476.28 1.52279
1476.40 1.56753
1476.51 1.61386
1476.62 1.66273
1476.73 1.71338
1476.84 1.76689
1476.95 1.82243
1477.06 1.88118
1477.18 1.94225
1477.29 2.00636
1477.40 2.07369
1477.50 2.13861
1477.60 2.20595
1477.70 2.27723
1477.80 2.35128
1477.91 2.42980
1478.01 2.51149
1478.11 2.59737
1478.21 2.68773
1478.31 2.78387
1478.41 2.88424
1478.51 2.99122
1478.61 3.10312
1478.72 3.22263
1478.82 3.34790
1478.92 3.48062
1479.02 3.62138
1479.13 3.78768
1479.24 3.96404
1479.35 4.15473
1479.47 4.35756
1479.58 4.57757
1479.69 4.81235
1479.80 5.06787
1479.91 5.34148
1480.02 5.64031
1480.13 5.96144
1480.25 6.31343
1480.36 6.69307
1480.47 7.11070
1480.58 7.56274
1480.69 8.06169
1480.80 8.60346
1480.86 8.89630
1480.92 9.20318
1480.97 9.52487
1481.03 9.85598
1481.08 10.2094
1481.14 10.5800
1481.19 10.9688
1481.25 11.3692
1481.31 11.7966
1481.36 12.2449
1481.42 12.7151
1481.47 13.1990
1481.53 13.7152
1481.58 14.2562
1481.64 14.8227
1481.70 15.4048
1481.75 16.0246
1481.81 16.6725
1481.86 17.3491
1481.92 18.0423
1481.97 18.7776
1482.03 19.5431
1482.14 21.1504
1482.25 22.8927
1482.36 24.7349
1482.48 26.6844
1482.59 28.7289
1482.70 30.9287
1482.82 33.1867
1483.05 37.7470
1483.16 39.9707
1483.28 42.0971
1483.39 44.0786
1483.51 45.8524
1483.58 46.8940
1483.65 47.8104
1483.73 48.6153
1483.80 49.2779
1483.88 49.8078
1483.95 50.1844
1484.03 50.4111
1484.10 50.4850
1484.18 50.4031
1484.24 50.2208
1484.30 49.9362
1484.42 49.0708
1484.54 47.8357
1484.66 46.2706
1484.79 44.4242
1484.91 42.3507
1485.03 40.1073
1485.15 37.7707
1485.53 30.2169
1485.63 28.3949
1485.73 26.6334
1485.82 24.9432
1485.92 23.3487
1486.01 21.8528
1486.10 20.4414
1486.20 19.1156
1486.29 17.8880
1486.39 16.7305
1486.48 15.6542
1486.57 14.6557
1486.67 13.7406
1486.77 12.8065
1486.87 11.9581
1486.97 11.1730
1487.08 10.4607
1487.18 9.80150
1487.28 9.20312
1487.38 8.65395
1487.49 8.14948
1487.58 7.72056
1487.67 7.32310
1487.77 6.95436
1487.86 6.61186
1487.96 6.29332
1488.05 5.99670
1488.14 5.72012
1488.24 5.46455
1488.33 5.22299
1488.42 4.99688
1488.52 4.78498
1488.61 4.58615
1488.71 4.39935
1488.80 4.22365
1488.89 4.05821
1488.99 3.90387
1489.08 3.75660
1489.18 3.61748
1489.27 3.48593
1489.36 3.36140
1489.55 3.13153
1489.74 2.92548
1489.93 2.73816
1490.11 2.56913
1490.30 2.41451
1490.49 2.27417
1490.63 2.17899
1490.76 2.09031
1490.90 2.00635
1491.03 1.92791
1491.17 1.85347
1491.31 1.78376
1491.44 1.71745
1491.58 1.65521
1491.85 1.54008
1492.13 1.43655
1492.40 1.34310
1492.67 1.25848
1492.86 1.20476
1493.05 1.15441
1493.24 1.10715
1493.42 1.06296
1493.61 1.02115
1493.80 0.981759
1493.99 0.944606
1494.17 0.909705
1494.36 0.876533
1494.55 0.845144
1494.93 0.787369
1495.30 0.735193
1495.68 0.688158
1496.05 0.645390
1496.43 0.606588
1496.80 0.571095
1497.18 0.538714
1497.55 0.508938
1497.93 0.481643
1498.30 0.456497
1498.68 0.433282
1499.04 0.412686
1499.40 0.393577
1499.76 0.375711
1500.11 0.359070
1500.47 0.343462
1500.83 0.328885
1501.19 0.315216
1501.55 0.302380
1501.91 0.290281
1502.26 0.278925
1502.62 0.268193
1502.98 0.258097
1503.34 0.248535
1503.70 0.239519
1504.41 0.222900
1505.16 0.207262
1505.92 0.193214
1506.67 0.180549
1507.42 0.169105
1508.17 0.158703
1508.92 0.149233
1509.67 0.140587
1510.42 0.132682
1510.97 0.127330
1511.51 0.122305
1512.60 0.113112
1513.70 0.104937
1514.79 0.0976207
1515.88 0.0910284
1516.97 0.0850802
1518.06 0.0796977
1519.16 0.0748115
1520.66 0.0687942
1522.16 0.0634767
1523.66 0.0587545
1525.16 0.0545448
1526.67 0.0507712
1528.17 0.0473776
1529.67 0.0443149
1531.17 0.0415429
1532.67 0.0390230
1534.17 0.0367270
1535.68 0.0346291
1537.18 0.0327084
1538.68 0.0309433
1540.18 0.0293195
1541.68 0.0278204
1543.18 0.0264360
1546.05 0.0240760
1548.92 0.0220121
1551.78 0.0202070
1554.65 0.0186178
1557.52 0.0172113
1560.38 0.0159621
1563.25 0.0148463
1566.12 0.0138463
1569.12 0.0129062
1572.12 0.0120613
1575.13 0.0112993
1578.13 0.0106103
1581.13 0.00998431
1584.14 0.00941504
1590.14 0.00842012
1594.51 0.00779800
1598.88 0.00724731
1603.25 0.00675856
1607.62 0.00632263
1611.99 0.00593150
1616.35 0.00558060
1625.09 0.00498062
1631.10 0.00463538
1637.10 0.00433399
1643.11 0.00407217
1649.12 0.00384668
1655.12 0.00365144
1661.13 0.00348650
1673.14 0.00323893
1681.88 0.00312973
1690.62 0.00308808
1697.17 0.00311055
1703.72 0.00319579
1710.28 0.00336730
1716.83 0.00366808
1720.38 0.00391094
1723.93 0.00423259
1727.48 0.00466795
1731.03 0.00526332
1733.48 0.00580877
1735.94 0.00650676
1738.40 0.00741485
1740.86 0.00862287
1742.36 0.00956984
1743.86 0.0107297
1745.36 0.0121723
1746.86 0.0139936
1748.09 0.0158666
1749.32 0.0182046
1750.55 0.0211715
1751.78 0.0250153
1752.53 0.0279601
1753.28 0.0315030
1754.03 0.0358175
1754.78 0.0411386
1755.53 0.0478277
1755.91 0.0518395
1756.28 0.0563896
1756.66 0.0616087
1757.03 0.0676020
1757.41 0.0745519
1757.78 0.0826776
1758.19 0.0932499
1758.60 0.106051
1759.01 0.121860
1759.22 0.131187
1759.42 0.141627
1759.61 0.152449
1759.80 0.164629
1759.98 0.178417
1760.17 0.194039
1760.36 0.212066
1760.55 0.232956
1760.74 0.257442
1760.92 0.286406
1761.11 0.321741
1761.20 0.342480
1761.30 0.365828
1761.39 0.392368
1761.49 0.422856
1761.58 0.458285
1761.67 0.499471
1761.77 0.548977
1761.81 0.577361
1761.86 0.608594
1761.91 0.643052
1761.96 0.681161
1762.00 0.723400
1762.05 0.769262
1762.10 0.821334
1762.14 0.879351
1762.19 0.944070
1762.24 1.01633
1762.28 1.09707
1762.33 1.18732
1762.38 1.28821
1762.42 1.39844
1762.45 1.46089
1762.47 1.52414
1762.49 1.59388
1762.52 1.66450
1762.54 1.74233
1762.56 1.82110
1762.59 1.90788
1762.61 1.99564
1762.64 2.09227
1762.66 2.18993
1762.68 2.29738
1762.71 2.40590
1762.73 2.52519
1762.75 2.64556
1762.78 2.77777
1762.80 2.91106
1762.82 3.05731
1762.85 3.20461
1762.87 3.36606
1762.89 3.52850
1762.92 3.70635
1762.94 3.88507
1762.96 4.08053
1762.99 4.27671
1763.01 4.49100
1763.03 4.70581
1763.06 4.94014
1763.08 5.17475
1763.11 5.43032
1763.13 5.68585
1763.15 5.95201
1763.17 6.22906
1763.20 6.53003
1763.22 6.83009
1763.25 7.15557
1763.27 7.47958
1763.29 7.83050
1763.32 8.17928
1763.34 8.55645
1763.36 8.93072
1763.41 9.73511
1763.46 10.5933
1763.50 11.5058
1763.55 12.4726
1763.58 13.0743
1763.61 13.6949
1763.66 14.9680
1763.70 15.8638
1763.73 16.7644
1763.77 17.6924
1763.81 18.6463
1763.87 20.4009
1763.93 22.2206
1764.00 24.0919
1764.06 25.9690
1764.25 31.6017
1764.32 33.7191
1764.40 35.7465
1764.49 38.1442
1764.58 40.2914
1764.63 41.2396
1764.68 42.0940
1764.72 42.8474
1764.77 43.4938
1764.85 44.2987
1764.92 44.7738
1764.96 44.9153
1765.00 44.9619
1765.01 44.9598
1765.03 44.9338
1765.05 44.8810
1765.10 44.6881
1765.18 44.0688
1765.26 43.1238
1765.34 41.8700
1765.41 40.4831
1765.48 38.8905
1765.56 36.9414
1765.64 34.8495
1765.72 32.4005
1765.81 29.8564
1765.97 25.1123
1766.05 22.7830
1766.13 20.5251
1766.20 18.3651
1766.28 16.3238
1766.32 15.3409
1766.36 14.4173
1766.40 13.5292
1766.44 12.6775
1766.47 11.9856
1766.51 11.3403
1766.54 10.7200
1766.57 10.1250
1766.60 9.53759
1766.63 8.99322
1766.67 8.47340
1766.70 7.97778
1766.73 7.49157
1766.76 7.04372
1766.80 6.61859
1766.83 6.21560
1766.86 5.83410
1766.89 5.47344
1766.92 5.13292
1766.96 4.81183
1767.00 4.43666
1767.03 4.09761
1767.07 3.77583
1767.11 3.48604
1767.15 3.21193
1767.19 2.96585
1767.23 2.73379
1767.27 2.52606
1767.31 2.33069
1767.35 2.15623
1767.39 1.99254
1767.43 1.84668
1767.47 1.71008
1767.51 1.58856
1767.55 1.47492
1767.59 1.37394
1767.63 1.26398
1767.68 1.16560
1767.73 1.07758
1767.77 1.00041
1767.82 0.929739
1767.87 0.867707
1767.91 0.810806
1767.96 0.760750
1768.01 0.714710
1768.05 0.674078
1768.15 0.603324
1768.24 0.545035
1768.33 0.496507
1768.41 0.461372
1768.49 0.430749
1768.57 0.403830
1768.65 0.379971
1768.81 0.339481
1768.96 0.306477
1769.12 0.278614
1769.28 0.254838
1769.44 0.234272
1769.59 0.216399
1769.75 0.200536
1769.91 0.186454
1770.07 0.173881
1770.23 0.162664
1770.54 0.143322
1770.86 0.127351
1771.11 0.116243
1771.37 0.106572
1771.63 0.0980944
1771.89 0.0906184
1772.15 0.0839888
1772.40 0.0780802
1772.92 0.0680345
1773.24 0.0628353
1773.55 0.0582398
1774.18 0.0504683
1774.81 0.0441952
1775.44 0.0390561
1776.19 0.0340935
1776.93 0.0300578
1777.68 0.0267267
1778.42 0.0239426
1779.69 0.0201655
1780.95 0.0172591
1782.21 0.0149716
1783.47 0.0131411
1784.85 0.0115289
1786.22 0.0102220
1787.60 0.00914784
1788.98 0.00825427
1791.50 0.00695777
1794.02 0.00598289
1796.55 0.00523063
1799.07 0.00463736
1802.05 0.00408409
1805.03 0.00364743
1808.01 0.00329741
1811.00 0.00301027
1816.04 0.00262964
1821.09 0.00234287
1826.13 0.00212046
1831.18 0.00194379
1840.36 0.00170317
1849.53 0.00152894
1858.71 0.00139870
1867.88 0.00129752
1886.23 0.00115294
1904.58 0.00105427
1922.93 0.000985692
1941.28 0.000936503
1970.64 0.000887214
2000.00 0.000864145
2013.45 0.000860809
2050.44 0.000873102
2087.43 0.000916578
2124.42 0.000996037
2142.91 0.00105298
2161.41 0.00112325
2179.90 0.00121201
2198.40 0.00132342
2216.89 0.00146415
2235.39 0.00164458
2249.68 0.00182137
2263.97 0.00204237
2278.26 0.00232192
2292.55 0.00268666
2301.80 0.00298517
2311.05 0.00335049
2320.29 0.00380467
2329.54 0.00438060
2336.27 0.00490361
2342.99 0.00554456
2349.72 0.00634051
2356.44 0.00735386
2361.07 0.00821949
2365.69 0.00926816
2370.31 0.0105573
2374.94 0.0121674
2378.72 0.0138053
2382.50 0.0158303
2384.40 0.0170282
2386.29 0.0183740
2388.18 0.0198953
2390.07 0.0216320
2392.38 0.0241043
2394.69 0.0270529
2397.01 0.0306100
2398.16 0.0326708
2399.32 0.0349566
2400.47 0.0375016
2401.63 0.0403469
2402.79 0.0435419
2403.94 0.0471466
2405.10 0.0512346
2406.25 0.0558968
2407.41 0.0612459
2408.56 0.0674131
2409.20 0.0711898
2409.83 0.0752936
2410.46 0.0797822
2411.09 0.0846901
2411.40 0.0873290
2411.72 0.0900871
2412.03 0.0929807
2412.35 0.0960185
2412.66 0.0992205
2412.98 0.102577
2413.29 0.106110
2413.61 0.109831
2413.96 0.114268
2414.14 0.116597
2414.32 0.118986
2414.50 0.121464
2414.67 0.124008
2414.85 0.126634
2415.03 0.129346
2415.13 0.130997
2415.24 0.132680
2415.41 0.135493
2415.58 0.138398
2415.75 0.141400
2415.92 0.144483
2416.16 0.148955
2416.39 0.153622
2416.63 0.158535
2416.87 0.163670
2417.10 0.169085
2417.34 0.174752
2417.58 0.180713
2417.81 0.186988
2417.95 0.190812
2418.09 0.194756
2418.23 0.198825
2418.36 0.203024
2418.50 0.207360
2418.64 0.211837
2418.78 0.216463
2418.92 0.221244
2419.05 0.226187
2419.19 0.231300
2419.33 0.236590
2419.47 0.242066
2419.61 0.247736
2419.74 0.253611
2419.88 0.259699
2420.02 0.265966
2420.16 0.272852
2420.31 0.279963
2420.45 0.287410
2420.60 0.295109
2420.74 0.303182
2420.89 0.311535
2421.03 0.320306
2421.17 0.329392
2421.32 0.338942
2421.46 0.348849
2421.61 0.359276
2421.75 0.370107
2421.90 0.381522
2422.04 0.393395
2422.19 0.405928
2422.33 0.418983
2422.48 0.432785
2422.62 0.447186
2422.76 0.462436
2422.91 0.478377
2423.05 0.495287
2423.20 0.512996
2423.34 0.531686
2423.49 0.551430
2423.63 0.572460
2423.78 0.594735
2423.92 0.618355
2424.06 0.643254
2424.21 0.669902
2424.35 0.698065
2424.50 0.728287
2424.64 0.760319
2424.79 0.794795
2424.93 0.831449
2425.08 0.871027
2425.22 0.913251
2425.37 0.959010
2425.51 1.00801
2425.65 1.06133
2425.80 1.11867
2425.87 1.14956
2425.94 1.18133
2426.02 1.21446
2426.09 1.24904
2426.16 1.28565
2426.23 1.32340
2426.30 1.36287
2426.38 1.40417
2426.45 1.44803
2426.52 1.49337
2426.59 1.54091
2426.67 1.59080
2426.74 1.64320
2426.81 1.69827
2426.88 1.75619
2426.95 1.81716
2427.03 1.88232
2427.10 1.95010
2427.17 2.02161
2427.24 2.09714
2427.32 2.17810
2427.39 2.26259
2427.46 2.35202
2427.53 2.44675
2427.60 2.54859
2427.68 2.65516
2427.75 2.76827
2427.82 2.88837
2427.89 3.01778
2427.97 3.15347
2428.04 3.29773
2428.11 3.45112
2428.16 3.57021
2428.22 3.69482
2428.27 3.82520
2428.32 3.95897
2428.37 4.10153
2428.43 4.24777
2428.48 4.40356
2428.53 4.56328
2428.58 4.73332
2428.64 4.90753
2428.69 5.09286
2428.74 5.28254
2428.79 5.48410
2428.85 5.69015
2428.95 6.13206
2429.02 6.46023
2429.10 6.80116
2429.17 7.15944
2429.24 7.53522
2429.31 7.93404
2429.38 8.34483
2429.46 8.77256
2429.53 9.21672
2429.65 9.97816
2429.76 10.7772
2429.88 11.6077
2430.00 12.4617
2430.31 14.7570
2430.47 15.8708
2430.62 16.9118
2430.73 17.5447
2430.83 18.1195
2430.93 18.6337
2431.03 19.0791
2431.13 19.4515
2431.23 19.7373
2431.33 19.9355
2431.43 20.0427
2431.50 20.0627
2431.57 20.0409
2431.68 19.9167
2431.79 19.6850
2431.90 19.3506
2432.01 18.9247
2432.12 18.4080
2432.23 17.8197
2432.34 17.1601
2432.45 16.4528
2432.60 15.3782
2432.75 14.2607
2433.06 11.9906
2433.21 10.9386
2433.36 9.94033
2433.51 8.99447
2433.58 8.54655
2433.65 8.12198
2433.77 7.45719
2433.89 6.84657
2434.02 6.27967
2434.14 5.76468
2434.20 5.52032
2434.26 5.29104
2434.32 5.07243
2434.38 4.86413
2434.44 4.66257
2434.50 4.47398
2434.56 4.29460
2434.62 4.12404
2434.69 3.92526
2434.77 3.73861
2434.84 3.56337
2434.91 3.40102
2434.99 3.24645
2435.06 3.10132
2435.13 2.96501
2435.21 2.83862
2435.28 2.71815
2435.36 2.60485
2435.43 2.49824
2435.50 2.39918
2435.58 2.30452
2435.65 2.21644
2435.72 2.13216
2435.80 2.05360
2435.87 1.97831
2435.94 1.90710
2436.09 1.77663
2436.24 1.65848
2436.39 1.55256
2436.53 1.45600
2436.68 1.36889
2436.83 1.28899
2436.98 1.21648
2437.12 1.15263
2437.26 1.09377
2437.40 1.03939
2437.54 0.989373
2437.68 0.942625
2437.82 0.899465
2437.96 0.858971
2438.10 0.821452
2438.24 0.786132
2438.38 0.753075
2438.52 0.722088
2438.66 0.693201
2438.95 0.640282
2439.23 0.593271
2439.52 0.549344
2439.82 0.510177
2440.11 0.475104
2440.41 0.443669
2440.70 0.415199
2441.00 0.389416
2441.29 0.365991
2441.58 0.344713
2441.96 0.320135
2442.34 0.298185
2442.71 0.278449
2443.09 0.260639
2443.46 0.244509
2443.84 0.229852
2444.21 0.216491
2444.59 0.204277
2445.18 0.187078
2445.76 0.172017
2446.35 0.158713
2446.94 0.146942
2447.53 0.136444
2448.12 0.127071
2448.71 0.118642
2449.30 0.111059
2449.89 0.104189
2450.48 0.0979679
2451.07 0.0922968
2451.66 0.0871303
2452.84 0.0780593
2454.02 0.0703965
2455.09 0.0644223
2456.16 0.0592184
2457.23 0.0546543
2458.30 0.0506378
2459.38 0.0470811
2460.45 0.0439210
2461.52 0.0411020
2462.59 0.0385801
2463.77 0.0360986
2464.95 0.0338848
2467.31 0.0301238
2469.67 0.0270763
2472.02 0.0245845
2473.95 0.0228785
2475.88 0.0214247
2477.81 0.0201762
2479.74 0.0191037
2481.67 0.0181869
2483.60 0.0174069
2487.46 0.0161999
2490.03 0.0156234
2492.60 0.0152109
2495.17 0.0149533
2497.75 0.0148484
2501.60 0.0149876
2505.46 0.0155271
2507.39 0.0159757
2509.32 0.0165650
2511.25 0.0173216
2513.18 0.0182901
2515.54 0.0198327
2517.90 0.0219008
2519.07 0.0231951
2520.25 0.0247106
2521.43 0.0264956
2522.61 0.0286116
2523.90 0.0313939
2525.18 0.0348254
2526.47 0.0391220
2527.76 0.0445934
2528.88 0.0507146
2529.44 0.0543886
2530.01 0.0585655
2530.57 0.0633598
2531.13 0.0688903
2531.70 0.0753182
2532.26 0.0828404
2532.85 0.0922308
2533.44 0.103556
2534.03 0.117424
2534.32 0.125577
2534.61 0.134677
2534.91 0.144956
2535.20 0.156591
2535.50 0.169840
2535.79 0.184971
2536.09 0.202500
2536.38 0.222912
2536.68 0.246915
2536.97 0.275360
2537.18 0.298914
2537.39 0.326017
2537.49 0.341155
2537.60 0.357522
2537.70 0.375273
2537.80 0.394403
2537.91 0.415505
2538.01 0.438670
2538.12 0.464226
2538.22 0.492573
2538.32 0.524201
2538.38 0.541429
2538.43 0.559713
2538.48 0.579152
2538.53 0.599853
2538.58 0.621937
2538.63 0.645068
2538.70 0.676373
2538.76 0.709947
2538.83 0.747199
2538.89 0.787347
2538.94 0.819798
2538.99 0.863107
2539.05 0.909548
2539.10 0.952868
2539.15 0.998646
2539.20 1.04910
2539.24 1.10251
2539.29 1.16147
2539.34 1.22394
2539.39 1.29297
2539.44 1.36618
2539.48 1.42667
2539.51 1.49096
2539.55 1.55927
2539.59 1.63185
2539.62 1.70896
2539.66 1.79087
2539.70 1.87786
2539.73 1.96764
2539.77 2.06551
2539.81 2.16933
2539.84 2.27944
2539.88 2.39616
2539.92 2.51982
2539.96 2.65075
2539.99 2.78931
2540.03 2.93178
2540.07 3.08641
2540.10 3.24972
2540.14 3.42205
2540.18 3.59872
2540.21 3.78989
2540.25 3.99113
2540.29 4.20276
2540.32 4.41898
2540.36 4.65209
2540.40 4.89655
2540.43 5.15263
2540.47 5.41320
2540.51 5.69298
2540.54 5.98511
2540.58 6.28979
2540.62 6.59842
2540.65 6.92829
2540.69 7.27107
2540.73 7.62683
2540.76 7.99557
2540.80 8.37726
2540.84 8.77181
2540.91 9.59892
2540.99 10.4752
2541.06 11.3852
2541.13 12.3503
2541.21 13.3399
2541.28 14.3757
2541.35 15.4230
2541.50 17.5786
2541.65 19.7512
2541.80 21.8297
2541.88 22.9094
2541.96 23.9116
2542.03 24.7695
2542.10 25.5401
2542.18 26.2346
2542.25 26.8256
2542.33 27.3741
2542.42 27.7784
2542.51 28.0627
2542.60 28.1562
2542.62 28.1528
2542.67 28.0976
2542.73 27.9753
2542.78 27.7868
2542.84 27.5336
2542.93 26.9567
2543.02 26.2180
2543.12 25.3176
2543.21 24.2931
2543.31 23.1431
2543.40 21.9143
2543.49 20.6599
2543.58 19.3766
2543.76 16.7579
2543.94 14.0423
2544.04 12.7455
2544.13 11.5198
2544.19 10.8134
2544.24 10.1449
2544.30 9.50272
2544.35 8.88779
2544.41 8.29044
2544.46 7.73245
2544.52 7.20310
2544.57 6.70237
2544.62 6.29697
2544.67 5.91205
2544.71 5.54727
2544.76 5.20222
2544.81 4.87642
2544.85 4.56931
2544.90 4.28031
2544.95 4.01438
2544.99 3.75930
2545.04 3.52036
2545.09 3.29684
2545.13 3.09231
2545.18 2.89717
2545.23 2.71529
2545.28 2.54597
2545.32 2.39171
2545.37 2.24514
2545.42 2.10904
2545.46 1.98277
2545.51 1.86808
2545.56 1.75940
2545.60 1.65871
2545.65 1.56547
2545.70 1.48091
2545.74 1.40086
2545.79 1.32675
2545.88 1.19589
2545.98 1.08227
2546.07 0.985539
2546.15 0.912110
2546.23 0.847314
2546.31 0.789963
2546.39 0.739027
2546.47 0.693621
2546.56 0.652984
2546.64 0.616465
2546.72 0.583897
2546.88 0.526794
2547.04 0.479421
2547.20 0.439034
2547.36 0.404575
2547.55 0.369999
2547.74 0.340429
2547.92 0.314723
2548.11 0.292180
2548.30 0.272266
2548.49 0.254563
2548.67 0.238741
2548.86 0.224533
2549.13 0.206245
2549.40 0.190447
2549.68 0.176652
2549.95 0.164532
2550.22 0.153826
2550.49 0.144322
2551.04 0.128265
2551.41 0.119056
2551.79 0.111088
2552.16 0.104124
2552.53 0.0980429
2553.28 0.0879801
2554.03 0.0801469
2554.61 0.0752694
2555.19 0.0712384
2555.77 0.0679054
2556.35 0.0651778
2556.92 0.0629663
2557.50 0.0612185
2558.66 0.0589324
2559.75 0.0580949
2560.50 0.0582139
2561.24 0.0588933
2561.99 0.0601423
2562.74 0.0619913
2563.49 0.0645214
2564.24 0.0678321
2564.99 0.0720686
2565.73 0.0774105
2566.48 0.0841427
2567.23 0.0926234
2567.98 0.103410
2568.35 0.109886
2568.73 0.117253
2569.10 0.125696
2569.48 0.135369
2569.85 0.146577
2570.23 0.159582
2570.60 0.174873
2570.98 0.192914
2571.35 0.214474
2571.72 0.240555
2571.99 0.262432
2572.25 0.287932
2572.38 0.302313
2572.52 0.317964
2572.65 0.335053
2572.78 0.353634
2572.91 0.374231
2573.04 0.397004
2573.17 0.422321
2573.31 0.450410
2573.44 0.482273
2573.50 0.499766
2573.57 0.518441
2573.64 0.538424
2573.70 0.559855
2573.77 0.582897
2573.83 0.607341
2573.88 0.627866
2573.93 0.649691
2573.99 0.672935
2574.04 0.697728
2574.09 0.724215
2574.14 0.752556
2574.19 0.782926
2574.24 0.815517
2574.28 0.840672
2574.31 0.866459
2574.33 0.879111
2574.33 0.880620
2574.34 0.884412
2574.34 0.887466
2574.35 0.893628
2574.37 0.907758
2574.38 0.921452
2574.42 0.950759
2574.45 0.979834
2574.49 1.01040
2574.52 1.04253
2574.55 1.07634
2574.58 1.11191
2574.62 1.14936
2574.65 1.18880
2574.68 1.23033
2574.72 1.28504
2574.76 1.34195
2574.81 1.40416
2574.85 1.46890
2574.89 1.53969
2574.93 1.61336
2574.97 1.69188
2575.01 1.77556
2575.05 1.86702
2575.09 1.96214
2575.13 2.06604
2575.17 2.17402
2575.21 2.29189
2575.25 2.41426
2575.29 2.54433
2575.33 2.68249
2575.36 2.79167
2575.39 2.90580
2575.42 3.02506
2575.45 3.14963
2575.48 3.27967
2575.51 3.41538
2575.54 3.55692
2575.57 3.69945
2575.60 3.85296
2575.63 4.01283
2575.66 4.17920
2575.69 4.34636
2575.72 4.52601
2575.75 4.71263
2575.78 4.90638
2575.81 5.10058
2575.85 5.43003
2575.90 5.77809
2575.95 6.14515
2575.99 6.52312
2576.04 6.92868
2576.09 7.35399
2576.13 7.79911
2576.18 8.25391
2576.23 8.73803
2576.27 9.24150
2576.32 9.76393
2576.37 10.2931
2576.41 10.8513
2576.46 11.4265
2576.55 12.6106
2576.64 13.7396
2576.72 14.9040
2576.81 16.0936
2576.89 17.2962
2577.08 19.9207
2577.18 21.1894
2577.27 22.3835
2577.36 23.5069
2577.46 24.5150
2577.55 25.4095
2577.64 26.1538
2577.70 26.5155
2577.75 26.8171
2577.80 27.0637
2577.86 27.2536
2577.93 27.4200
2578.00 27.4742
2578.02 27.4701
2578.08 27.4089
2578.14 27.2745
2578.20 27.0680
2578.25 26.7964
2578.36 26.1469
2578.46 25.3035
2578.57 24.2771
2578.67 23.1128
2578.78 21.8163
2578.88 20.4418
2578.97 19.1885
2579.06 17.9225
2579.24 15.3674
2579.35 13.9199
2579.45 12.5243
2579.56 11.1971
2579.61 10.5693
2579.66 9.96277
2579.72 9.32350
2579.78 8.71198
2579.83 8.12893
2579.89 7.57479
2579.95 7.04976
2580.00 6.55378
2580.06 6.08659
2580.12 5.64773
2580.17 5.26455
2580.22 4.91130
2580.28 4.57369
2580.33 4.26371
2580.38 3.96862
2580.43 3.69868
2580.48 3.44727
2580.54 3.21349
2580.59 2.99240
2580.64 2.79142
2580.69 2.60187
2580.75 2.42998
2580.80 2.26824
2580.85 2.12187
2580.90 1.98687
2580.96 1.86243
2581.01 1.74569
2581.06 1.64030
2581.11 1.54149
2581.17 1.45233
2581.22 1.36875
2581.27 1.29331
2581.32 1.22384
2581.37 1.15984
2581.48 1.04541
2581.58 0.948874
2581.69 0.865510
2581.79 0.794542
2581.88 0.743170
2581.96 0.697416
2582.05 0.656489
2582.14 0.620124
2582.22 0.586900
2582.31 0.557122
2582.48 0.504885
2582.65 0.460888
2582.82 0.423310
2582.99 0.390829
2583.16 0.362465
2583.37 0.332198
2583.58 0.306140
2583.79 0.283288
2584.00 0.263290
2584.21 0.245507
2584.42 0.229756
2584.63 0.215664
2584.84 0.203001
2585.12 0.187646
2585.41 0.174262
2585.69 0.162443
2585.98 0.152024
2586.26 0.142728
2586.55 0.134456
2587.12 0.120342
2587.54 0.111685
2587.96 0.104207
2588.38 0.0976813
2588.79 0.0919875
2589.63 0.0825722
2590.47 0.0752297
2591.15 0.0704105
2591.84 0.0664477
2592.52 0.0631905
2593.21 0.0605246
2593.89 0.0583652
2594.58 0.0566480
2595.95 0.0543558
2596.86 0.0535693
2597.77 0.0533237
2598.61 0.0535583
2599.45 0.0542343
2600.29 0.0553700
2601.12 0.0570009
2601.96 0.0591861
2602.80 0.0620011
2603.63 0.0655602
2604.47 0.0700223
2605.31 0.0756168
2606.15 0.0826688
2606.98 0.0916417
2607.40 0.0970579
2607.82 0.103223
2608.24 0.110311
2608.66 0.118494
2609.08 0.128007
2609.49 0.139127
2609.91 0.152312
2610.33 0.168037
2610.75 0.187122
2610.96 0.198194
2611.17 0.210518
2611.46 0.230448
2611.76 0.254045
2612.05 0.282359
2612.20 0.298794
2612.35 0.316916
2612.50 0.337293
2612.64 0.360052
2612.79 0.386033
2612.94 0.415572
2613.01 0.432125
2613.09 0.449990
2613.16 0.469333
2613.23 0.490050
2613.31 0.512931
2613.38 0.537612
2613.45 0.565068
2613.53 0.594899
2613.58 0.617107
2613.63 0.640919
2613.68 0.666495
2613.73 0.694005
2613.78 0.723642
2613.83 0.755613
2613.88 0.790149
2613.93 0.827501
2613.97 0.860423
2614.01 0.894700
2614.06 0.945616
2614.12 1.00028
2614.16 1.04516
2614.20 1.09199
2614.24 1.14335
2614.28 1.19697
2614.32 1.25579
2614.36 1.31720
2614.40 1.38288
2614.44 1.45311
2614.49 1.53989
2614.53 1.63146
2614.55 1.68097
2614.58 1.73012
2614.60 1.78344
2614.62 1.83635
2614.64 1.89374
2614.67 1.95332
2614.69 2.01516
2614.71 2.07648
2614.74 2.14295
2614.76 2.20885
2614.80 2.35100
2614.83 2.42761
2614.85 2.50701
2614.89 2.67073
2614.94 2.84602
2614.98 3.03351
2615.03 3.23380
2615.07 3.44750
2615.12 3.67522
2615.16 3.91754
2615.22 4.22245
2615.27 4.54293
2615.32 4.89212
2615.37 5.25757
2615.43 5.65401
2615.48 6.06700
2615.53 6.50422
2615.58 6.96597
2615.64 7.46197
2615.69 7.97350
2615.74 8.50950
2615.79 9.06957
2615.84 9.66460
2615.90 10.2713
2615.95 10.8997
2616.00 11.5486
2616.06 12.2946
2616.12 13.0485
2616.23 14.6067
2616.33 16.0835
2616.44 17.5619
2616.54 19.0444
2616.65 20.4745
2616.75 21.8495
2616.86 23.1132
2616.96 24.2599
2617.07 25.2399
2617.13 25.7400
2617.19 26.1715
2617.26 26.5813
2617.33 26.8880
2617.42 27.1105
2617.50 27.1834
2617.52 27.1806
2617.57 27.1363
2617.62 27.0389
2617.72 26.6919
2617.79 26.3090
2617.86 25.8237
2617.93 25.2596
2618.00 24.6114
2618.11 23.5375
2618.21 22.3412
2618.28 21.4450
2618.35 20.5074
2618.49 18.5605
2618.77 14.5750
2618.90 12.8194
2618.97 11.9819
2619.03 11.1715
2619.09 10.3911
2619.16 9.64321
2619.22 8.92973
2619.29 8.25208
2619.36 7.54334
2619.43 6.88045
2619.50 6.26345
2619.57 5.69956
2619.61 5.42645
2619.64 5.17172
2619.68 4.92745
2619.71 4.69345
2619.75 4.46325
2619.78 4.24941
2619.82 4.04515
2619.85 3.85022
2619.90 3.59248
2619.95 3.35650
2620.00 3.13614
2620.04 2.93064
2620.09 2.73928
2620.14 2.56131
2620.19 2.39600
2620.24 2.24261
2620.28 2.10043
2620.33 1.96877
2620.38 1.84696
2620.43 1.73434
2620.48 1.63028
2620.52 1.53419
2620.57 1.44550
2620.62 1.36366
2620.69 1.25408
2620.76 1.15683
2620.83 1.07050
2620.90 0.994836
2620.97 0.926540
2621.04 0.866538
2621.12 0.812212
2621.19 0.764303
2621.26 0.720735
2621.33 0.682123
2621.40 0.646818
2621.47 0.615345
2621.61 0.560412
2621.75 0.514635
2621.92 0.469518
2622.08 0.431968
2622.25 0.400234
2622.42 0.373208
2622.58 0.349655
2622.75 0.329072
2622.92 0.310948
2623.08 0.294980
2623.37 0.271629
2623.65 0.252283
2623.93 0.235998
2624.21 0.222299
2624.50 0.210639
2624.78 0.200756
2625.06 0.192339
2625.34 0.185173
2625.68 0.178072
2626.01 0.172279
2626.34 0.167581
2626.68 0.163867
2627.01 0.161003
2627.34 0.158919
2627.68 0.157533
2628.01 0.156800
2628.58 0.156932
2629.14 0.158683
2629.70 0.162000
2630.27 0.166870
2630.83 0.173363
2631.40 0.181565
2631.68 0.186379
2631.96 0.191675
2632.24 0.197502
2632.53 0.203899
2632.81 0.210934
2633.09 0.218609
2633.37 0.227004
2633.66 0.236187
2633.94 0.246270
2634.08 0.251645
2634.22 0.257268
2634.36 0.263154
2634.50 0.269316
2634.64 0.275769
2634.78 0.282529
2634.93 0.289666
2635.07 0.297096
2635.21 0.304891
2635.35 0.313071
2635.49 0.321660
2635.63 0.330685
2635.77 0.340172
2635.91 0.350152
2636.07 0.361731
2636.24 0.374973
2636.40 0.388986
2636.57 0.404011
2636.65 0.411849
2636.73 0.419949
2636.88 0.434442
2637.02 0.449682
2637.16 0.465834
2637.30 0.482970
2637.37 0.491997
2637.44 0.501172
2637.51 0.510768
2637.58 0.520528
2637.65 0.530743
2637.72 0.541139
2637.79 0.552027
2637.86 0.563115
2637.93 0.574736
2638.01 0.586751
2638.08 0.599178
2638.15 0.611853
2638.22 0.625157
2638.29 0.638737
2638.36 0.653004
2638.43 0.667579
2638.50 0.682904
2638.57 0.698574
2638.64 0.715067
2638.71 0.731947
2638.78 0.749731
2638.85 0.767952
2638.92 0.787168
2638.99 0.806878
2639.08 0.833403
2639.17 0.861349
2639.26 0.890823
2639.35 0.921585
2639.44 0.954453
2639.53 0.989233
2639.62 1.02608
2639.71 1.06471
2639.78 1.09442
2639.84 1.12497
2639.90 1.15691
2639.97 1.19032
2640.03 1.22528
2640.10 1.26191
2640.16 1.30030
2640.22 1.34058
2640.29 1.38355
2640.35 1.42802
2640.42 1.47479
2640.48 1.52400
2640.54 1.57585
2640.61 1.63050
2640.67 1.68816
2640.74 1.74903
2640.81 1.82061
2640.88 1.89678
2640.95 1.97790
2641.02 2.06311
2641.09 2.15526
2641.16 2.25220
2641.23 2.35718
2641.30 2.46776
2641.37 2.58764
2641.44 2.71588
2641.51 2.85310
2641.58 2.99781
2641.66 3.15483
2641.73 3.32041
2641.80 3.50000
2641.87 3.68926
2641.94 3.89435
2642.01 4.11022
2642.08 4.34379
2642.15 4.58917
2642.22 4.85408
2642.29 5.13171
2642.36 5.43058
2642.43 5.74280
2642.50 6.07775
2642.57 6.42631
2642.64 6.79869
2642.71 7.18446
2642.78 7.59459
2642.85 8.01727
2642.92 8.46414
2642.99 8.92198
2643.07 9.40299
2643.14 9.89965
2643.21 10.4106
2643.28 10.9267
2643.42 11.9960
2643.56 13.0899
2643.85 15.2922
2643.99 16.3312
2644.13 17.2835
2644.21 17.7919
2644.30 18.2525
2644.38 18.6713
2644.46 19.0337
2644.54 19.3441
2644.63 19.5915
2644.71 19.7789
2644.79 19.8995
2644.90 19.9581
2645.01 19.8976
2645.10 19.7602
2645.19 19.5487
2645.28 19.2613
2645.37 18.9084
2645.46 18.4870
2645.55 18.0122
2645.64 17.4858
2645.73 16.9144
2645.84 16.1138
2645.96 15.2645
2646.07 14.3822
2646.19 13.4900
2646.47 11.2892
2646.62 10.2315
2646.76 9.23387
2646.87 8.49170
2646.98 7.79317
2647.09 7.14066
2647.21 6.53531
2647.32 5.97716
2647.43 5.46534
2647.49 5.22633
2647.54 4.99825
2647.60 4.78083
2647.65 4.57736
2647.71 4.38012
2647.77 4.19255
2647.82 4.01429
2647.88 3.84499
2647.93 3.68428
2647.99 3.53178
2648.05 3.38713
2648.10 3.24995
2648.16 3.11989
2648.21 2.99659
2648.27 2.87972
2648.33 2.76893
2648.38 2.66390
2648.44 2.56431
2648.55 2.38186
2648.62 2.27329
2648.69 2.17312
2648.76 2.07929
2648.83 1.99134
2648.91 1.90772
2648.98 1.83033
2649.05 1.75761
2649.12 1.68920
2649.19 1.62393
2649.26 1.56329
2649.40 1.45207
2649.55 1.35205
2649.69 1.26299
2649.80 1.19905
2649.91 1.14005
2650.02 1.08548
2650.14 1.03489
2650.25 0.987908
2650.36 0.944179
2650.47 0.903404
2650.58 0.865316
2650.81 0.796274
2651.03 0.735448
2651.26 0.681554
2651.48 0.633755
2651.70 0.590780
2651.93 0.552157
2652.15 0.517308
2652.38 0.485748
2652.60 0.457070
2652.82 0.430928
2653.05 0.407027
2653.27 0.385208
2653.47 0.366791
2653.68 0.349779
2654.08 0.319139
2654.49 0.292449
2654.90 0.269049
2655.31 0.248414
2655.71 0.230120
2656.12 0.213825
2656.53 0.199245
2656.97 0.184902
2657.42 0.172095
2657.87 0.160612
2658.32 0.150296
2658.77 0.140953
2659.21 0.132482
2659.66 0.124777
2660.11 0.117762
2660.76 0.108582
2661.41 0.100486
2662.06 0.0932991
2662.71 0.0868856
2663.37 0.0811258
2664.02 0.0759474
2664.67 0.0712681
2665.32 0.0670264
2666.21 0.0618078
2667.11 0.0572082
2668.01 0.0531238
2668.90 0.0494875
2669.80 0.0462284
2670.69 0.0433018
2672.48 0.0382660
2673.54 0.0357157
2674.60 0.0334307
2676.72 0.0295138
2678.83 0.0262980
2680.95 0.0236166
2682.74 0.0216785
2684.53 0.0199907
2686.32 0.0185114
2688.11 0.0172074
2691.69 0.0150222
2695.28 0.0132743
2699.18 0.0117368
2703.09 0.0104904
2707.00 0.00946565
2710.91 0.00861642
2714.49 0.00795450
2718.07 0.00738568
2725.23 0.00646639
2732.40 0.00576509
2739.56 0.00522207
2749.98 0.00463584
2760.40 0.00422511
2770.82 0.00394001
2781.24 0.00375334
2791.66 0.00364755
2802.08 0.00361272
2816.41 0.00367416
2830.74 0.00386650
2837.90 0.00401682
2845.06 0.00421104
2852.23 0.00445453
2859.39 0.00475378
2866.55 0.00512430
2873.72 0.00558213
2880.88 0.00614896
2888.05 0.00685594
2895.21 0.00774779
2902.37 0.00888915
2905.96 0.00958184
2909.54 0.0103772
2913.12 0.0112958
2916.70 0.0123606
2920.28 0.0136091
2923.86 0.0150891
2927.45 0.0168579
2931.03 0.0189967
2932.82 0.0202386
2934.61 0.0216186
2936.40 0.0231584
2938.19 0.0248842
2939.98 0.0268279
2941.77 0.0290288
2943.57 0.0315357
2945.36 0.0344080
2946.74 0.0369284
2948.12 0.0397584
2949.51 0.0429523
2950.89 0.0465766
2952.28 0.0507088
2953.66 0.0554473
2954.35 0.0580902
2955.04 0.0609443
2955.74 0.0640309
2956.43 0.0673745
2956.96 0.0701268
2957.49 0.0730561
2958.02 0.0761851
2958.54 0.0795337
2959.07 0.0831240
2959.60 0.0869801
2959.87 0.0890202
2960.13 0.0911295
2960.40 0.0933278
2960.66 0.0956031
2960.95 0.0981601
2961.23 0.100828
2961.37 0.102210
2961.52 0.103613
2961.66 0.105057
2961.80 0.106523
2961.94 0.108033
2962.09 0.109565
2962.23 0.111145
2962.37 0.112749
2962.51 0.114402
2962.66 0.116082
2962.94 0.119562
2963.25 0.123502
2963.55 0.127637
2963.86 0.132011
2964.16 0.136612
2964.47 0.141488
2964.77 0.146629
2965.08 0.152072
2965.38 0.157843
2965.61 0.162306
2965.83 0.166972
2966.05 0.171855
2966.28 0.176969
2966.50 0.182328
2966.73 0.187948
2966.95 0.193849
2967.17 0.200019
2967.40 0.206537
2967.62 0.213397
2967.85 0.220625
2968.07 0.228212
2968.18 0.232180
2968.29 0.236258
2968.40 0.240450
2968.52 0.244761
2968.63 0.249195
2968.74 0.253757
2968.85 0.258453
2968.96 0.263244
2969.08 0.268221
2969.19 0.273349
2969.30 0.278633
2969.41 0.284080
2969.52 0.289698
2969.64 0.295492
2969.75 0.301471
2969.86 0.307643
2969.97 0.314017
2970.08 0.320602
2970.20 0.327407
2970.31 0.334442
2970.42 0.341718
2970.53 0.349247
2970.64 0.357040
2970.75 0.365038
2970.87 0.373397
2970.98 0.382061
2971.09 0.391046
2971.20 0.400368
2971.31 0.410045
2971.43 0.420094
2971.54 0.430537
2971.65 0.441393
2971.76 0.452686
2971.87 0.464440
2971.99 0.476681
2972.10 0.489436
2972.21 0.502736
2972.32 0.516613
2972.43 0.531101
2972.55 0.546237
2972.66 0.562061
2972.77 0.578618
2972.88 0.595953
2972.99 0.614117
2973.11 0.633165
2973.22 0.653156
2973.33 0.674156
2973.44 0.696033
2973.55 0.719257
2973.67 0.743719
2973.78 0.769512
2973.89 0.796735
2974.00 0.825499
2974.11 0.855925
2974.23 0.888146
2974.34 0.921995
2974.42 0.949961
2974.51 0.979278
2974.60 1.01004
2974.68 1.04195
2974.77 1.07588
2974.86 1.11114
2974.94 1.14868
2975.03 1.18777
2975.12 1.22947
2975.20 1.27296
2975.29 1.31944
2975.38 1.36802
2975.46 1.42004
2975.55 1.47451
2975.64 1.53294
2975.72 1.59425
2975.83 1.67984
2975.95 1.77256
2976.06 1.87313
2976.17 1.98137
2976.28 2.10010
2976.39 2.22937
2976.50 2.37023
2976.62 2.52239
2976.73 2.69137
2976.84 2.87415
2976.95 3.07351
2977.06 3.29082
2977.18 3.52747
2977.29 3.78485
2977.40 4.06426
2977.51 4.36694
2977.62 4.69394
2977.74 5.04612
2977.85 5.42406
2977.96 5.82799
2978.07 6.25773
2978.18 6.71260
2978.30 7.19137
2978.41 7.68764
2978.52 8.20315
2978.63 8.73479
2978.85 9.83063
2979.07 10.9369
2979.29 12.0016
2979.41 12.5059
2979.52 12.9808
2979.63 13.4192
2979.74 13.8111
2979.85 14.1575
2979.96 14.4465
2980.07 14.6786
2980.18 14.8457
2980.29 14.9479
2980.40 14.9817
2980.47 14.9663
2980.59 14.8765
2980.71 14.7082
2980.83 14.4648
2980.95 14.1513
2981.07 13.7738
2981.19 13.3395
2981.31 12.8564
2981.43 12.3376
2981.65 11.3126
2981.87 10.2403
2982.09 9.15775
2982.30 8.11424
2982.41 7.60359
2982.52 7.11706
2982.63 6.65220
2982.74 6.21065
2982.86 5.78979
2982.97 5.39777
2983.08 5.03081
2983.19 4.68865
2983.30 4.36793
2983.41 4.07360
2983.52 3.79925
2983.63 3.54867
2983.74 3.31601
2983.85 3.10416
2983.96 2.90963
2984.07 2.73109
2984.16 2.58736
2984.26 2.45538
2984.36 2.33159
2984.45 2.21787
2984.55 2.11112
2984.64 2.01293
2984.74 1.92157
2984.83 1.83649
2984.93 1.75638
2985.02 1.68245
2985.12 1.61341
2985.21 1.54886
2985.31 1.48784
2985.40 1.43128
2985.50 1.37824
2985.59 1.32845
2985.70 1.27404
2985.81 1.22381
2985.92 1.17693
2986.03 1.13313
2986.15 1.09179
2986.26 1.05342
2986.37 1.01745
2986.48 0.983671
2986.70 0.921815
2986.92 0.867252
2987.14 0.818524
2987.36 0.775279
2987.60 0.733155
2987.84 0.695821
2988.08 0.662678
2988.32 0.633343
2988.56 0.607152
2988.80 0.583882
2989.04 0.563235
2989.28 0.545028
2989.44 0.534024
2989.60 0.523987
2989.93 0.506357
2990.25 0.491806
2990.57 0.480072
2990.89 0.470954
2991.21 0.464300
2991.53 0.460006
2991.85 0.458008
2992.13 0.458115
2992.41 0.459968
2992.69 0.463601
2992.97 0.469066
2993.26 0.476447
2993.40 0.480905
2993.54 0.485851
2993.68 0.491374
2993.82 0.497418
2993.96 0.504042
2994.10 0.511272
2994.26 0.520371
2994.42 0.530293
2994.58 0.541213
2994.74 0.553056
2994.82 0.559449
2994.90 0.566038
2994.98 0.572909
2995.06 0.580072
2995.14 0.587633
2995.22 0.595417
2995.30 0.603529
2995.38 0.611979
2995.49 0.624291
2995.60 0.637202
2995.71 0.650986
2995.82 0.665441
2995.93 0.680879
2996.04 0.697076
2996.15 0.714223
2996.26 0.732384
2996.35 0.746445
2996.43 0.760937
2996.48 0.771456
2996.54 0.782099
2996.59 0.793063
2996.65 0.804358
2996.70 0.815997
2996.76 0.827993
2996.81 0.840359
2996.87 0.853109
2996.92 0.866257
2996.98 0.879819
2997.03 0.893812
2997.09 0.908252
2997.14 0.923158
2997.20 0.938547
2997.25 0.954441
2997.31 0.970859
2997.36 0.987198
2997.41 1.00407
2997.47 1.02149
2997.52 1.03913
2997.57 1.05771
2997.62 1.07691
2997.68 1.09677
2997.73 1.11690
2997.78 1.13813
2997.83 1.16009
2997.89 1.18283
2997.94 1.20593
2997.99 1.23030
2998.04 1.25508
2998.10 1.28124
2998.15 1.30786
2998.23 1.34852
2998.30 1.39083
2998.38 1.43547
2998.45 1.48259
2998.53 1.53305
2998.60 1.58571
2998.68 1.64144
2998.75 1.70043
2998.81 1.74676
2998.86 1.79427
2998.92 1.84387
2998.97 1.89567
2999.03 1.95080
2999.08 2.00741
2999.14 2.06658
2999.19 2.12845
2999.25 2.19437
2999.30 2.26211
2999.36 2.33300
2999.41 2.40717
2999.47 2.48479
2999.52 2.56602
2999.58 2.65105
2999.63 2.74003
2999.69 2.83489
2999.75 2.93243
2999.80 3.03448
2999.86 3.14124
2999.91 3.25289
2999.97 3.36963
3000.02 3.49165
3000.08 3.61913
3000.13 3.75473
3000.19 3.89380
3000.24 4.03888
3000.30 4.19014
3000.35 4.34772
3000.41 4.51179
3000.46 4.68246
3000.52 4.85986
3000.57 5.04750
3000.63 5.23874
3000.68 5.43695
3000.74 5.64214
3000.79 5.85825
3000.85 6.07751
3000.90 6.30368
3000.96 6.53664
3001.07 7.02695
3001.18 7.53805
3001.29 8.07200
3001.40 8.62585
3001.51 9.20114
3001.62 9.78298
3001.84 10.9602
3002.12 12.3908
3002.25 13.0591
3002.39 13.6701
3002.49 14.0825
3002.59 14.4488
3002.69 14.7682
3002.80 15.0361
3002.90 15.2505
3003.00 15.4039
3003.10 15.4965
3003.20 15.5268
3003.34 15.4694
3003.45 15.3408
3003.56 15.1412
3003.67 14.8739
3003.77 14.5470
3003.88 14.1601
3003.99 13.7221
3004.10 13.2402
3004.21 12.7266
3004.38 11.8663
3004.56 10.9642
3004.73 10.0471
3004.90 9.13872
3005.07 8.26427
3005.24 7.43862
3005.32 7.04346
3005.41 6.66319
3005.49 6.29858
3005.58 5.95417
3005.69 5.50513
3005.81 5.09058
3005.92 4.70305
3006.04 4.34847
3006.15 4.01957
3006.27 3.72065
3006.38 3.44493
3006.50 3.19549
3006.58 3.02539
3006.67 2.86665
3006.75 2.71856
3006.84 2.58201
3006.92 2.45309
3007.01 2.33286
3007.09 2.22069
3007.18 2.11721
3007.26 2.01940
3007.35 1.92802
3007.43 1.84260
3007.52 1.76360
3007.60 1.68871
3007.69 1.61852
3007.77 1.55269
3007.86 1.49157
3008.03 1.37870
3008.19 1.27913
3008.36 1.18986
3008.53 1.11045
3008.70 1.03869
3008.87 0.974348
3009.04 0.916090
3009.21 0.863159
3009.37 0.818744
3009.52 0.778095
3009.67 0.740551
3009.83 0.705796
3009.98 0.673553
3010.14 0.643580
3010.44 0.589613
3010.75 0.542468
3011.06 0.501016
3011.37 0.464358
3011.68 0.431768
3012.01 0.399897
3012.35 0.371596
3012.69 0.346343
3013.03 0.323706
3013.37 0.303330
3013.71 0.284919
3014.05 0.268222
3014.39 0.253074
3014.91 0.232140
3015.43 0.213839
3015.96 0.197735
3016.48 0.183506
3017.01 0.170815
3017.53 0.159486
3018.05 0.149288
3018.58 0.140109
3019.25 0.129487
3019.93 0.120096
3020.61 0.111748
3021.29 0.104302
3021.96 0.0976100
3022.64 0.0915795
3023.32 0.0861240
3024.00 0.0811778
3024.86 0.0755031
3025.72 0.0704383
3026.59 0.0658984
3027.45 0.0618179
3029.17 0.0547779
3030.90 0.0489304
3032.25 0.0450021
3033.61 0.0415583
3034.97 0.0385163
3036.32 0.0358184
3037.68 0.0334099
3039.03 0.0312530
3041.74 0.0275561
3044.70 0.0242667
3047.66 0.0215698
3050.61 0.0193297
3053.57 0.0174514
3056.28 0.0159737
3058.99 0.0146921
3061.70 0.0135734
3064.42 0.0125909
3069.84 0.0109542
3075.26 0.00965549
3081.17 0.00852463
3087.09 0.00761874
3093.00 0.00688509
3098.92 0.00628863
3104.34 0.00583490
3109.76 0.00545527
3120.61 0.00487788
3131.45 0.00449313
3142.29 0.00426824
3154.12 0.00419386
3162.50 0.00425348
3170.88 0.00442517
3179.26 0.00473818
3187.64 0.00525220
3193.06 0.00573517
3198.48 0.00638587
3203.91 0.00727236
3209.33 0.00850124
3212.04 0.00929660
3214.75 0.0102572
3217.46 0.0114272
3220.17 0.0128698
3222.88 0.0146741
3225.59 0.0169692
3228.31 0.0199480
3229.66 0.0217805
3231.02 0.0239021
3232.37 0.0263849
3233.73 0.0293147
3235.08 0.0328075
3236.44 0.0370092
3237.79 0.0421334
3239.15 0.0484619
3239.83 0.0522047
3240.50 0.0564115
3241.18 0.0611775
3241.86 0.0665899
3242.54 0.0727911
3243.22 0.0799324
3243.89 0.0882152
3244.57 0.0978831
3245.25 0.109301
3245.93 0.122901
3246.60 0.139279
3246.94 0.148753
3247.28 0.159217
3247.64 0.171473
3247.99 0.185196
3248.34 0.200683
3248.52 0.209187
3248.70 0.218259
3248.88 0.228010
3249.05 0.238390
3249.23 0.249520
3249.41 0.261475
3249.58 0.274342
3249.76 0.288218
3249.94 0.303217
3250.12 0.319465
3250.25 0.333198
3250.39 0.347875
3250.53 0.363587
3250.67 0.380315
3250.75 0.390180
3250.88 0.407913
3251.01 0.426950
3251.11 0.443083
3251.22 0.460202
3251.32 0.478395
3251.43 0.497760
3251.53 0.518406
3251.63 0.540457
3251.74 0.564053
3251.84 0.589354
3251.90 0.603221
3251.95 0.617623
3252.00 0.632591
3252.06 0.648155
3252.11 0.664351
3252.17 0.681214
3252.22 0.698785
3252.27 0.716758
3252.33 0.735857
3252.38 0.755799
3252.43 0.776635
3252.49 0.798010
3252.54 0.820789
3252.60 0.844642
3252.65 0.869639
3252.70 0.895357
3252.75 0.917137
3252.79 0.939245
3252.83 0.962778
3252.87 0.986688
3252.92 1.01216
3252.96 1.03807
3253.00 1.06569
3253.04 1.09380
3253.09 1.12381
3253.13 1.15437
3253.17 1.18701
3253.21 1.22028
3253.26 1.25584
3253.30 1.29211
3253.34 1.32998
3253.38 1.36953
3253.42 1.41185
3253.47 1.45507
3253.51 1.50133
3253.55 1.54858
3253.59 1.59919
3253.64 1.65090
3253.68 1.70497
3253.72 1.76151
3253.76 1.82208
3253.81 1.88398
3253.85 1.94872
3253.89 2.01641
3253.93 2.08891
3253.97 2.16298
3254.02 2.24040
3254.06 2.32132
3254.10 2.40792
3254.14 2.49633
3254.19 2.59089
3254.23 2.68736
3254.27 2.79048
3254.31 2.89560
3254.36 3.00520
3254.40 3.11942
3254.44 3.24130
3254.48 3.36530
3254.53 3.49745
3254.57 3.63175
3254.61 3.77471
3254.65 3.91980
3254.69 4.07037
3254.74 4.22654
3254.81 4.53166
3254.89 4.85250
3254.97 5.19314
3255.05 5.55369
3255.12 5.93411
3255.20 6.33410
3255.28 6.75319
3255.35 7.19062
3255.44 7.69356
3255.52 8.20961
3255.61 8.74889
3255.69 9.29618
3255.78 9.86147
3255.86 10.4349
3256.03 11.5835
3256.20 12.7209
3256.37 13.7949
3256.46 14.3299
3256.55 14.8259
3256.64 15.2881
3256.73 15.7008
3256.85 16.1890
3256.97 16.5714
3257.10 16.8386
3257.22 16.9837
3257.30 17.0107
3257.38 16.9822
3257.45 16.9173
3257.52 16.8156
3257.58 16.6778
3257.65 16.5078
3257.72 16.3018
3257.78 16.0672
3257.92 15.5064
3258.02 14.9994
3258.12 14.4379
3258.22 13.8307
3258.33 13.1934
3258.43 12.5292
3258.53 11.8470
3258.73 10.4619
3258.87 9.52791
3259.01 8.62103
3259.15 7.75472
3259.29 6.93935
3259.39 6.37777
3259.49 5.84951
3259.60 5.35571
3259.70 4.89681
3259.80 4.47265
3259.90 4.08253
3259.95 3.89991
3260.00 3.72537
3260.06 3.55870
3260.11 3.40275
3260.16 3.25106
3260.21 3.10661
3260.26 2.96915
3260.31 2.83844
3260.41 2.59625
3260.51 2.37804
3260.62 2.18177
3260.72 2.00548
3260.82 1.84727
3260.92 1.70665
3261.00 1.60068
3261.09 1.50485
3261.17 1.41604
3261.25 1.33561
3261.34 1.26095
3261.42 1.19321
3261.51 1.13017
3261.59 1.07281
3261.67 1.01928
3261.76 0.970432
3261.92 0.882793
3262.09 0.807247
3262.26 0.742026
3262.46 0.672895
3262.66 0.613645
3262.87 0.562394
3263.07 0.517899
3263.27 0.478595
3263.48 0.443828
3263.68 0.412894
3263.89 0.385352
3264.11 0.358281
3264.33 0.334172
3264.55 0.312408
3264.78 0.292853
3265.00 0.275058
3265.22 0.258953
3265.66 0.230815
3266.07 0.208906
3266.48 0.190038
3266.89 0.173666
3267.30 0.159393
3267.70 0.146814
3268.11 0.135694
3268.52 0.125815
3268.93 0.117017
3269.33 0.109110
3269.74 0.101994
3270.56 0.0897529
3271.37 0.0796315
3272.19 0.0711664
3272.86 0.0652201
3273.52 0.0600158
3274.19 0.0554261
3274.86 0.0513559
3276.19 0.0444839
3277.52 0.0389414
3279.16 0.0335100
3280.79 0.0291812
3282.42 0.0256752
3284.05 0.0227973
3286.12 0.0198200
3288.20 0.0174294
3290.27 0.0154799
3292.35 0.0138654
3295.61 0.0118404
3298.87 0.0102771
3302.13 0.00904512
3305.40 0.00805838
3309.55 0.00706367
3313.70 0.00628520
3317.85 0.00566764
3322.00 0.00516757
3328.52 0.00456111
3335.05 0.00411341
3341.57 0.00377923
3348.09 0.00352925
3356.39 0.00330436
3364.70 0.00315662
3373.00 0.00307097
3381.30 0.00303813
3394.35 0.00308136
3407.39 0.00323602
3420.44 0.00351212
3433.48 0.00393814
3441.19 0.00428143
3448.90 0.00470821
3456.61 0.00524757
3464.32 0.00593055
3470.84 0.00665583
3477.37 0.00755989
3483.89 0.00870233
3487.15 0.00938888
3490.41 0.0101705
3494.86 0.0114234
3499.31 0.0129453
3501.53 0.0138290
3503.75 0.0148172
3505.98 0.0159226
3508.20 0.0171632
3511.46 0.0192785
3514.72 0.0218292
3516.36 0.0233067
3517.99 0.0249449
3519.62 0.0267676
3521.25 0.0288024
3522.73 0.0308677
3524.21 0.0331673
3525.70 0.0357417
3527.18 0.0386321
3528.66 0.0418972
3530.14 0.0455975
3531.63 0.0498143
3533.11 0.0546473
3533.85 0.0573426
3534.59 0.0602426
3535.33 0.0633714
3536.07 0.0667529
3536.44 0.0685494
3536.81 0.0704197
3537.19 0.0723679
3537.56 0.0743929
3537.93 0.0765103
3538.30 0.0787137
3538.67 0.0810206
3539.04 0.0834246
3539.58 0.0871175
3539.84 0.0890575
3540.11 0.0910560
3540.38 0.0931310
3540.65 0.0952783
3540.92 0.0975015
3541.19 0.0997954
3541.37 0.101436
3541.56 0.103108
3541.69 0.104308
3541.82 0.105529
3542.08 0.108028
3542.34 0.110617
3542.60 0.113301
3542.76 0.115084
3542.93 0.116909
3543.26 0.120694
3543.60 0.124666
3543.93 0.128825
3544.26 0.133209
3544.60 0.137807
3544.76 0.140204
3544.93 0.142663
3545.10 0.145188
3545.26 0.147765
3545.52 0.151941
3545.78 0.156280
3546.04 0.160826
3546.30 0.165555
3546.56 0.170516
3546.82 0.175683
3547.08 0.181090
3547.34 0.186750
3547.54 0.191398
3547.75 0.196222
3547.95 0.201231
3548.16 0.206434
3548.36 0.211842
3548.56 0.217466
3548.77 0.223317
3548.97 0.229377
3549.17 0.235718
3549.38 0.242327
3549.58 0.249217
3549.79 0.256406
3549.99 0.263909
3550.19 0.271747
3550.40 0.279939
3550.60 0.288463
3550.81 0.297428
3551.01 0.306816
3551.21 0.316655
3551.42 0.326974
3551.62 0.337804
3551.83 0.349180
3552.03 0.361139
3552.23 0.373657
3552.44 0.386903
3552.64 0.400862
3552.84 0.415587
3553.05 0.431057
3553.25 0.447484
3553.46 0.464864
3553.66 0.483269
3553.86 0.502683
3554.07 0.523387
3554.27 0.545386
3554.47 0.568788
3554.68 0.593715
3554.88 0.620298
3555.09 0.648686
3555.29 0.679042
3555.49 0.711382
3555.70 0.746228
3555.90 0.783652
3556.11 0.823906
3556.31 0.867272
3556.51 0.914067
3556.72 0.964645
3556.92 1.01940
3557.02 1.04849
3557.12 1.07849
3557.23 1.11006
3557.33 1.14298
3557.43 1.17732
3557.53 1.21315
3557.63 1.25057
3557.74 1.28965
3557.84 1.33048
3557.94 1.37315
3558.04 1.41778
3558.14 1.46446
3558.25 1.51330
3558.35 1.56443
3558.45 1.61796
3558.55 1.67401
3558.65 1.73273
3558.76 1.79362
3558.86 1.85805
3558.96 1.92556
3559.06 1.99630
3559.16 2.07044
3559.27 2.14811
3559.37 2.22949
3559.47 2.31473
3559.57 2.40308
3559.67 2.49644
3559.77 2.59411
3559.88 2.69622
3559.98 2.80290
3560.08 2.91426
3560.18 3.03040
3560.28 3.15140
3560.39 3.27605
3560.49 3.40683
3560.59 3.54120
3560.69 3.68175
3560.79 3.82566
3560.99 4.12860
3561.20 4.44842
3561.40 4.78267
3561.60 5.12789
3561.81 5.47966
3562.01 5.83078
3562.23 6.20535
3562.45 6.56323
3562.66 6.89806
3562.88 7.19700
3563.10 7.45323
3563.32 7.65580
3563.43 7.73514
3563.54 7.79886
3563.65 7.84635
3563.76 7.87719
3563.90 7.89191
3564.05 7.87620
3564.19 7.83012
3564.31 7.77062
3564.43 7.69283
3564.55 7.59629
3564.67 7.48365
3564.79 7.35417
3564.90 7.21134
3565.14 6.88823
3565.38 6.52364
3565.61 6.13308
3565.85 5.72532
3566.09 5.31481
3566.39 4.79791
3566.69 4.30627
3566.84 4.07200
3566.99 3.84875
3567.14 3.63417
3567.29 3.43148
3567.48 3.19494
3567.66 2.97589
3567.85 2.77270
3568.03 2.58481
3568.22 2.41060
3568.40 2.25109
3568.59 2.10440
3568.77 1.96961
3568.92 1.87102
3569.06 1.77881
3569.21 1.69256
3569.36 1.61238
3569.50 1.53680
3569.65 1.46600
3569.79 1.39966
3569.94 1.33784
3570.08 1.27942
3570.23 1.22455
3570.38 1.17296
3570.52 1.12475
3570.67 1.07904
3570.81 1.03624
3571.10 0.957462
3571.40 0.886878
3571.69 0.823856
3571.98 0.767194
3572.27 0.716088
3572.56 0.669851
3572.85 0.627897
3573.14 0.589723
3573.43 0.554895
3573.80 0.514758
3574.17 0.478795
3574.55 0.446455
3574.92 0.417343
3575.29 0.390909
3575.66 0.366960
3576.03 0.345080
3576.40 0.325142
3576.98 0.297044
3577.56 0.272421
3578.15 0.250728
3578.73 0.231551
3579.31 0.214462
3579.89 0.199219
3580.48 0.185522
3581.06 0.173210
3581.64 0.162065
3582.22 0.151979
3582.81 0.142790
3583.39 0.134425
3583.97 0.126762
3584.55 0.119749
3585.72 0.107369
3586.78 0.0977114
3587.84 0.0893012
3588.89 0.0819269
3589.95 0.0754276
3591.01 0.0696729
3592.07 0.0645541
3593.13 0.0599810
3594.19 0.0558786
3595.35 0.0518353
3596.52 0.0482170
3597.68 0.0449663
3598.85 0.0420351
3601.18 0.0369750
3603.51 0.0327826
3604.99 0.0304762
3606.47 0.0284066
3609.44 0.0248606
3612.41 0.0219486
3615.37 0.0195183
3617.70 0.0178834
3620.03 0.0164477
3622.36 0.0151803
3624.69 0.0140561
3629.35 0.0121561
3634.01 0.0106222
3638.67 0.00936537
3643.33 0.00832283
3647.99 0.00744839
3652.65 0.00670800
3661.54 0.00557831
3670.44 0.00471641
3679.33 0.00404491
3688.23 0.00351141
3697.55 0.00306203
3706.87 0.00269687
3716.19 0.00239590
3725.51 0.00214484
3739.91 0.00183136
3754.31 0.00158581
3768.71 0.00138832
3783.12 0.00122769
3801.75 0.00106066
3820.39 0.000927566
3839.03 0.000819548
3857.67 0.000730672
3886.48 0.000621272
3915.28 0.000536644
3944.09 0.000469104
3972.89 0.000414549
3986.44 0.000392417
3993.22 0.000382244
3994.07 0.000381626
3994.49 0.000383567
3994.92 0.000393776
3995.13 0.000407622
3995.34 0.000434219
3995.55 0.000483638
3995.66 0.000521808
3995.76 0.000572147
3995.87 0.000639325
3995.98 0.000727608
3996.08 0.000842797
3996.19 0.000992030
3996.29 0.00118400
3996.40 0.00142922
3996.51 0.00174025
3996.61 0.00212787
3996.72 0.00261679
3996.82 0.00322405
3996.93 0.00397299
3997.04 0.00489023
3997.14 0.00600573
3997.25 0.00735289
3997.35 0.00896845
3997.46 0.0108727
3997.56 0.0131443
3997.67 0.0158120
3997.78 0.0189231
3997.88 0.0225260
3997.99 0.0266691
3998.09 0.0314005
3998.31 0.0427472
3998.52 0.0569914
3998.73 0.0743076
3998.94 0.0947783
3999.15 0.118194
3999.36 0.144490
3999.58 0.173082
4000.00 0.234251
4000.00 0.468360
4250.00 0.454546
4500.00 0.441894
4750.00 0.430252
5000.00 0.419490
5500.00 0.400137
6000.00 0.383250
6500.00 0.368107
7000.00 0.354620
7500.00 0.342250
8000.00 0.331070
8500.00 0.320657
9000.00 0.311140
9500.00 0.302207
10000.0 0.293970
10625.0 0.283663
11250.0 0.274276
11875.0 0.265684
12500.0 0.257781
13125.0 0.250481
13750.0 0.243714
15000.0 0.231544
16250.0 0.220886
17500.0 0.211457
18750.0 0.203040
20000.0 0.195470
21250.0 0.187960
22500.0 0.181143
23750.0 0.174923
25000.0 0.169219
26250.0 0.163967
27500.0 0.159110
28750.0 0.154605
30000.0 0.150410
32500.0 0.142636
35000.0 0.135796
37500.0 0.129724
40000.0 0.124290
42500.0 0.119436
45000.0 0.115034
47500.0 0.111019
50000.0 0.107340
52500.0 0.104034
55000.0 0.100976
60000.0 0.0954960
65000.0 0.0908553
70000.0 0.0867600
75000.0 0.0832252
80000.0 0.0800490
90000.0 0.0940240
100000 0.0910650
112500 0.0884608
125000 0.0861944
137500 0.0841943
150000 0.0824089
175000 0.0793383
200000 0.0767710
225000 0.0752916
250000 0.0739924
300000 0.0717970
350000 0.0750161
400000 0.0779210
500000 0.0810330
540000 0.0825500
540162 0.0823614
543517 0.0785641
546872 0.0749636
550226 0.0715486
553581 0.0683086
556936 0.0652335
560291 0.0623142
563645 0.0595417
567000 0.0569080
583500 0.0534247
600000 0.0502430
625000 0.0484413
650000 0.0467712
675000 0.0452185
700000 0.0437710
722000 0.0432460
800000 0.0454640
878000 0.0459540
900000 0.0460470
1.00000E+06 0.0475270
1.03300E+06 0.0481470
1.13100E+06 0.0498620
1.15950E+06 0.0479536
1.18800E+06 0.0461620
1.21000E+06 0.0456920
1.21300E+06 0.0456460
1.21335E+06 0.0455633
1.22218E+06 0.0435336
1.23100E+06 0.0416080
1.25200E+06 0.0402930
1.27400E+06 0.0393830
1.38800E+06 0.0374380
1.50000E+06 0.0374870
1.61400E+06 0.0380380
1.64600E+06 0.0381190
1.72800E+06 0.0372760
1.77400E+06 0.0372950
1.82100E+06 0.0374550
1.82204E+06 0.0374434
1.86700E+06 0.0369520
1.91300E+06 0.0368930
1.94900E+06 0.0369320
1.95900E+06 0.0369560
1.95910E+06 0.0369511
1.98500E+06 0.0356690
2.00000E+06 0.0357220
2.02100E+06 0.0358060
2.05700E+06 0.0359920
2.10000E+06 0.0362500
2.10000E+06 0.0362500
2.22686E+06 0.0359597
2.50000E+06 0.0353940
2.56250E+06 0.0341892
2.62500E+06 0.0330531
2.75000E+06 0.0309654
2.87500E+06 0.0290938
3.00000E+06 0.0274080
3.06250E+06 0.0259831
3.12500E+06 0.0246589
3.18750E+06 0.0234264
3.25000E+06 0.0222776
3.31250E+06 0.0212055
3.37500E+06 0.0202037
3.43750E+06 0.0192662
3.50000E+06 0.0183880
3.56250E+06 0.0172424
3.62500E+06 0.0161863
3.68750E+06 0.0152113
3.75000E+06 0.0143099
3.81250E+06 0.0134756
3.87500E+06 0.0127023
3.93750E+06 0.0119847
4.00000E+06 0.0113180
4.06250E+06 0.0105397
4.12500E+06 0.00982565
4.18750E+06 0.00916963
4.25000E+06 0.00856617
4.31250E+06 0.00801038
4.37500E+06 0.00749788
4.43750E+06 0.00702476
4.50000E+06 0.00658750
4.56250E+06 0.00610306
4.62500E+06 0.00566013
4.68750E+06 0.00525465
4.75000E+06 0.00488302
4.81250E+06 0.00454203
4.87500E+06 0.00422881
4.93750E+06 0.00394076
5.00000E+06 0.00367560
5.06250E+06 0.00339259
5.12500E+06 0.00313445
5.18750E+06 0.00289873
5.25000E+06 0.00268324
5.31250E+06 0.00248605
5.37500E+06 0.00230541
5.43750E+06 0.00213976
5.50000E+06 0.00198770
5.56250E+06 0.00183008
5.62500E+06 0.00168652
5.68750E+06 0.00155562
5.75000E+06 0.00143615
5.81250E+06 0.00132700
5.87500E+06 0.00122718
5.93750E+06 0.00113581
6.00000E+06 0.00105210
6.06143E+06 0.000971868
6.12285E+06 0.000898473
6.18428E+06 0.000831272
6.24570E+06 0.000769688
6.30713E+06 0.000713204
6.36855E+06 0.000661353
6.42998E+06 0.000613717
6.49140E+06 0.000569916
6.49142E+06 0.000569905
6.50000E+06 0.000564070
6.56250E+06 0.000520287
6.62500E+06 0.000480271
6.68750E+06 0.000443665
6.75000E+06 0.000410152
6.81250E+06 0.000379445
6.87500E+06 0.000351286
6.93750E+06 0.000325444
7.00000E+06 0.000301710
7.06250E+06 0.000278206
7.12500E+06 0.000256717
7.18750E+06 0.000237054
7.25000E+06 0.000219048
7.31250E+06 0.000202548
7.37500E+06 0.000187415
7.43750E+06 0.000173526
7.50000E+06 0.000160770
7.56250E+06 0.000148346
7.62500E+06 0.000136972
7.68750E+06 0.000126553
7.75000E+06 0.000117001
7.81250E+06 0.000108238
7.87500E+06 0.000100194
7.93750E+06 9.28041E-05
8.00000E+06 8.60110E-05
8.06250E+06 7.94508E-05
8.12500E+06 7.34358E-05
8.18750E+06 6.79173E-05
8.25000E+06 6.28507E-05
8.31250E+06 5.81962E-05
8.37500E+06 5.39174E-05
8.43750E+06 4.99816E-05
8.50000E+06 4.63590E-05
8.56250E+06 4.28986E-05
8.62500E+06 3.97189E-05
8.68750E+06 3.67954E-05
8.75000E+06 3.41057E-05
8.81250E+06 3.16297E-05
8.87500E+06 2.93491E-05
8.93750E+06 2.72472E-05
9.00000E+06 2.53090E-05
9.04690E+06 2.39052E-05
9.09380E+06 2.25859E-05
9.15283E+06 2.10373E-05
9.21185E+06 1.96038E-05
9.27088E+06 1.82762E-05
9.32990E+06 1.70461E-05
9.37243E+06 1.62159E-05
9.41495E+06 1.54296E-05
9.45748E+06 1.46848E-05
9.50000E+06 1.39790E-05
1.00000E+07 7.22140E-06
1.10000E+07 0.00000
1.20000E+07 0.00000
1.30000E+07 0.00000
1.40000E+07 0.00000
1.50000E+07 0.00000
1.60000E+07 0.00000
1.62889E+07 0.00000
1.70000E+07 0.00000
1.80000E+07 0.00000
1.90000E+07 0.00000
2.00000E+07 0.00000
