Dy-161(n,g) ENDFB-8.0
Energy(eV) XS(b)
1.00000E-05 30181.7
1.03125E-05 29720.9
1.06250E-05 29280.6
1.09375E-05 28859.3
1.12500E-05 28455.6
1.15625E-05 28068.4
1.18750E-05 27696.7
1.21875E-05 27339.3
1.25000E-05 26995.4
1.28125E-05 26664.1
1.31250E-05 26344.8
1.34375E-05 26036.6
1.37500E-05 25739.1
1.43750E-05 25173.3
1.50000E-05 24643.3
1.56250E-05 24145.4
1.62500E-05 23676.5
1.68750E-05 23233.9
1.75000E-05 22815.2
1.81250E-05 22418.4
1.87500E-05 22041.6
1.93750E-05 21683.2
2.00000E-05 21341.7
2.09375E-05 20858.4
2.18750E-05 20406.6
2.28125E-05 19982.9
2.37500E-05 19584.5
2.46875E-05 19209.0
2.56250E-05 18854.4
2.65625E-05 18518.7
2.75000E-05 18200.3
2.84375E-05 17897.7
2.93750E-05 17609.8
3.03125E-05 17335.4
3.12500E-05 17073.4
3.21875E-05 16822.9
3.31250E-05 16583.1
3.40625E-05 16353.3
3.50000E-05 16132.8
3.59375E-05 15921.0
3.68750E-05 15717.3
3.78125E-05 15521.2
3.87500E-05 15332.3
3.96875E-05 15150.2
4.06250E-05 14974.3
4.25000E-05 14640.3
4.43750E-05 14327.6
4.62500E-05 14034.2
4.81250E-05 13758.1
5.00000E-05 13497.7
5.15625E-05 13291.6
5.31250E-05 13094.7
5.46875E-05 12906.3
5.62500E-05 12725.7
5.78125E-05 12552.6
5.93750E-05 12386.3
6.09375E-05 12226.5
6.25000E-05 12072.7
6.40625E-05 11924.6
6.56250E-05 11781.7
6.71875E-05 11643.9
6.87500E-05 11510.9
7.18750E-05 11257.8
7.50000E-05 11020.8
7.81250E-05 10798.1
8.12500E-05 10588.5
8.43750E-05 10390.5
8.75000E-05 10203.3
9.06250E-05 10025.8
9.37500E-05 9857.31
9.68750E-05 9697.01
0.000100000 9544.30
0.000103125 9398.57
0.000106250 9259.33
0.000109375 9126.09
0.000112500 8998.45
0.000115625 8876.01
0.000118750 8758.45
0.000121875 8645.43
0.000125000 8536.68
0.000128125 8431.93
0.000131250 8330.94
0.000134375 8233.50
0.000137500 8139.40
0.000143750 7960.49
0.000150000 7792.88
0.000156250 7635.43
0.000162500 7487.16
0.000168750 7347.20
0.000175000 7214.81
0.000181250 7089.32
0.000187500 6970.16
0.000193750 6856.82
0.000200000 6748.83
0.000209375 6596.01
0.000218750 6453.12
0.000228125 6319.13
0.000237500 6193.15
0.000246875 6074.42
0.000256250 5962.27
0.000265625 5856.11
0.000275000 5755.42
0.000284375 5659.76
0.000293750 5568.71
0.000303125 5481.92
0.000312500 5399.06
0.000321875 5319.85
0.000331250 5244.03
0.000340625 5171.36
0.000350000 5101.63
0.000359375 5034.65
0.000368750 4970.24
0.000378125 4908.24
0.000387500 4848.50
0.000396875 4790.89
0.000406250 4735.29
0.000425000 4629.66
0.000443750 4530.79
0.000462500 4438.00
0.000481250 4350.69
0.000500000 4268.33
0.000515625 4203.16
0.000531250 4140.89
0.000546875 4081.31
0.000562500 4024.22
0.000578125 3969.47
0.000593750 3916.89
0.000609375 3866.35
0.000625000 3817.71
0.000640625 3770.87
0.000656250 3725.71
0.000671875 3682.13
0.000687500 3640.05
0.000718750 3560.04
0.000750000 3485.08
0.000781250 3414.67
0.000812500 3348.36
0.000843750 3285.77
0.000875000 3226.56
0.000906250 3170.44
0.000937500 3117.16
0.000968750 3066.47
0.00100000 3018.18
0.00103125 2972.09
0.00106250 2928.06
0.00109375 2885.93
0.00112500 2845.57
0.00115625 2806.85
0.00118750 2769.67
0.00121875 2733.93
0.00125000 2699.54
0.00128125 2666.42
0.00131250 2634.49
0.00134375 2603.67
0.00137500 2573.92
0.00143750 2517.34
0.00150000 2464.34
0.00156250 2414.55
0.00162500 2367.66
0.00168750 2323.40
0.00175000 2281.54
0.00181250 2241.86
0.00187500 2204.18
0.00193750 2168.33
0.00200000 2134.18
0.00209375 2085.85
0.00218750 2040.67
0.00228125 1998.29
0.00237500 1958.46
0.00246875 1920.91
0.00256250 1885.44
0.00265625 1851.87
0.00275000 1820.03
0.00284375 1789.77
0.00293750 1760.98
0.00303125 1733.54
0.00312500 1707.33
0.00321875 1682.28
0.00331250 1658.31
0.00340625 1635.33
0.00350000 1613.28
0.00359375 1592.09
0.00368750 1571.73
0.00378125 1552.12
0.00387500 1533.23
0.00396875 1515.01
0.00406250 1497.43
0.00425000 1464.02
0.00443750 1432.76
0.00462500 1403.42
0.00481250 1375.80
0.00500000 1349.76
0.00515625 1329.15
0.00531250 1309.46
0.00546875 1290.62
0.00562500 1272.57
0.00578125 1255.25
0.00593750 1238.63
0.00609375 1222.64
0.00625000 1207.27
0.00640625 1192.45
0.00656250 1178.17
0.00671875 1164.39
0.00687500 1151.09
0.00718750 1125.79
0.00750000 1102.08
0.00781250 1079.82
0.00812500 1058.85
0.00843750 1039.05
0.00875000 1020.33
0.00906250 1002.58
0.00937500 985.725
0.00968750 969.694
0.0100000 954.420
0.0103125 939.846
0.0106250 925.921
0.0109375 912.597
0.0112500 899.832
0.0115625 887.589
0.0118750 875.833
0.0121875 864.533
0.0125000 853.660
0.0128125 843.187
0.0131250 833.090
0.0134375 823.348
0.0137500 813.940
0.0143750 796.053
0.0150000 779.294
0.0156250 763.550
0.0162500 748.722
0.0168750 734.725
0.0175000 721.484
0.0181250 708.933
0.0187500 697.015
0.0193750 685.679
0.0200000 674.878
0.0206625 663.968
0.0213250 653.572
0.0219875 643.649
0.0226500 634.164
0.0233125 625.087
0.0239750 616.389
0.0246375 608.045
0.0253000 600.031
0.0264578 586.754
0.0276156 574.323
0.0287734 562.650
0.0299313 551.663
0.0310891 541.297
0.0322469 531.496
0.0334047 522.208
0.0345625 513.391
0.0355274 506.374
0.0364922 499.636
0.0374570 493.159
0.0384219 486.927
0.0393867 480.925
0.0403516 475.139
0.0413164 469.557
0.0422813 464.167
0.0442109 453.921
0.0461406 444.325
0.0480703 435.313
0.0500000 426.828
0.0515625 420.310
0.0531250 414.081
0.0546875 408.122
0.0562500 402.412
0.0578125 396.936
0.0593750 391.678
0.0609375 386.624
0.0625000 381.761
0.0640625 377.079
0.0656250 372.565
0.0671875 368.211
0.0687500 364.006
0.0718750 356.010
0.0750000 348.517
0.0781250 341.475
0.0812500 334.842
0.0843750 328.581
0.0875000 322.658
0.0906250 317.044
0.0937500 311.714
0.0968750 306.644
0.100000 301.813
0.103125 297.204
0.106250 292.800
0.109375 288.586
0.112500 284.548
0.115625 280.676
0.118750 276.958
0.121875 273.383
0.125000 269.944
0.128125 266.633
0.131250 263.441
0.134375 260.363
0.137500 257.391
0.143750 251.739
0.150000 246.440
0.156250 241.460
0.162500 236.769
0.168750 232.341
0.175000 228.153
0.181250 224.184
0.187500 220.415
0.193750 216.830
0.200000 213.414
0.206250 210.155
0.212500 207.040
0.218750 204.061
0.225000 201.206
0.231250 198.468
0.237500 195.839
0.243750 193.311
0.250000 190.879
0.256250 188.542
0.259375 187.422
0.262500 186.382
0.264063 185.930
0.265625 185.567
0.267188 185.356
0.267969 185.337
0.268750 185.397
0.269531 185.557
0.270313 185.844
0.271094 186.289
0.271875 186.930
0.272656 187.812
0.273047 188.360
0.273438 188.989
0.273828 189.708
0.274219 190.524
0.274609 191.447
0.275000 192.488
0.275391 193.657
0.275781 194.966
0.276172 196.425
0.276563 198.050
0.276953 199.852
0.277344 201.847
0.277734 204.049
0.278125 206.474
0.278516 209.139
0.278906 212.061
0.279297 215.257
0.279688 218.746
0.280078 222.548
0.280469 226.680
0.280859 231.165
0.281055 233.545
0.281250 236.021
0.281445 238.597
0.281641 241.272
0.281836 244.050
0.282031 246.935
0.282227 249.928
0.282422 253.033
0.282617 256.252
0.282813 259.588
0.283008 263.045
0.283203 266.623
0.283399 270.325
0.283594 274.155
0.283789 278.114
0.283984 282.206
0.284180 286.434
0.284375 290.799
0.284570 295.306
0.284766 299.954
0.284961 304.747
0.285156 309.687
0.285352 314.777
0.285547 320.019
0.285742 325.415
0.285938 330.968
0.286133 336.681
0.286328 342.553
0.286524 348.586
0.286719 354.784
0.286914 361.147
0.287109 367.678
0.287305 374.378
0.287500 381.249
0.287695 388.295
0.287891 395.511
0.288086 402.901
0.288281 410.466
0.288477 418.208
0.288672 426.126
0.288867 434.222
0.289063 442.497
0.289453 459.586
0.289844 477.386
0.290234 495.901
0.290625 515.127
0.291016 535.065
0.291406 555.695
0.291797 577.013
0.292188 599.005
0.292578 621.660
0.292969 644.950
0.293359 668.859
0.293750 693.363
0.294141 718.444
0.294531 744.060
0.294922 770.186
0.295313 796.791
0.295703 823.846
0.296094 851.300
0.296875 907.273
0.297656 964.396
0.298438 1022.31
0.300000 1139.06
0.300000 2078.80
0.310938 2041.62
0.321875 2006.35
0.332813 1972.84
0.343750 1940.94
0.354688 1910.54
0.365625 1881.52
0.376563 1853.77
0.387500 1827.21
0.398438 1801.75
0.409375 1777.32
0.420313 1753.86
0.431250 1731.29
0.442188 1709.58
0.453125 1688.65
0.464063 1668.47
0.475000 1648.99
0.518750 1577.36
0.562500 1514.28
0.606250 1458.18
0.650000 1407.85
0.693750 1362.38
0.737500 1321.03
0.781250 1283.20
0.825000 1248.44
0.912500 1186.59
1.00000 1133.07
1.07031 1094.31
1.14063 1059.22
1.21094 1027.25
1.28125 997.977
1.35156 971.035
1.42188 946.133
1.56250 901.511
1.70313 862.579
1.84375 828.226
1.98438 797.622
2.12500 770.131
2.26563 745.262
2.40625 722.624
2.54688 701.902
2.68750 682.842
2.96875 648.900
3.25000 619.499
3.53125 593.713
3.81250 570.858
4.09375 550.419
4.37500 531.999
4.65625 515.288
4.93750 500.038
5.21875 486.047
5.50000 473.152
6.06250 450.130
6.62500 430.129
7.18750 412.542
7.75000 396.922
8.31250 382.929
8.87500 370.298
9.43750 358.822
10.0000 348.337
10.6250 337.447
11.2500 327.492
11.8750 318.345
12.5000 309.904
13.7500 294.809
15.0000 281.671
16.0000 272.307
17.0000 263.794
18.5000 252.362
20.0000 242.262
21.2500 234.688
22.5000 227.765
23.7500 221.403
25.0000 215.533
27.5000 205.034
30.0000 195.898
32.5000 187.852
35.0000 180.698
37.5000 174.284
40.0000 168.489
42.5000 163.015
45.0000 158.017
47.5000 153.431
50.0000 149.203
55.0000 141.653
60.0000 135.095
65.0000 129.331
70.0000 124.213
72.0000 122.276
78.5000 116.518
85.0000 111.458
92.5000 106.321
100.000 101.794
106.250 98.4095
112.500 95.3217
118.750 92.4900
125.000 89.8815
137.500 85.2282
150.000 81.1907
160.000 78.3201
170.000 75.7161
185.000 72.2281
200.000 69.1546
212.500 66.8554
225.000 64.7576
237.500 62.8339
250.000 61.0618
275.000 57.9005
300.000 55.1576
325.000 52.7493
350.000 50.6134
375.000 48.7028
400.000 46.9808
425.000 45.2914
450.000 43.7543
475.000 42.3483
500.000 41.0563
525.000 39.8639
550.000 38.7592
600.000 36.7746
650.000 35.0388
700.000 33.5048
720.000 32.9142
785.000 31.1661
850.000 29.6394
925.000 28.0986
1000.00 26.7490
1062.50 25.7615
1125.00 24.8639
1187.50 24.0437
1250.00 23.2905
1312.50 22.5961
1375.00 21.9532
1500.00 20.7994
1600.00 19.9830
1700.00 19.2453
1850.00 18.2617
2000.00 17.3993
2125.00 16.7570
2250.00 16.1732
2375.00 15.6396
2500.00 15.1497
2625.00 14.6980
2750.00 14.2798
3000.00 13.5293
3250.00 12.8739
3500.00 12.2953
3750.00 11.7801
4000.00 11.3177
4250.00 10.8958
4500.00 10.5124
4750.00 10.1621
5000.00 9.84062
5250.00 9.54427
5500.00 9.27002
6000.00 8.77805
6500.00 8.34856
7000.00 7.96968
7200.00 7.83477
7850.00 7.43492
8500.00 7.08496
9250.00 6.73102
10000.0 6.42038
10625.0 6.20952
11250.0 6.01706
11875.0 5.84050
12500.0 5.67779
13750.0 5.38739
15000.0 5.13527
16000.0 4.95592
17000.0 4.79315
18500.0 4.57502
20000.0 4.38271
21250.0 4.25184
22500.0 4.13204
23750.0 4.02182
25000.0 3.91997
27500.0 3.73753
30000.0 3.57840
32500.0 3.45316
35000.0 3.34112
37500.0 3.24008
40000.0 3.14833
42500.0 3.06921
45000.0 2.99643
50000.0 2.86677
53492.5 2.79181
56985.0 2.72338
56985.4 2.72337
60000.0 2.58645
65000.0 2.47989
70000.0 2.38515
75000.0 2.31035
80000.0 2.24250
85000.0 2.18305
90000.0 2.12845
99999.9 2.03497
100000 2.03497
105000 1.99243
110000 1.95270
115000 1.91693
120000 1.88329
125000 1.85265
130000 1.82368
137301 1.78376
140000 1.76465
145000 1.73601
150000 1.70879
155000 1.68335
160000 1.65908
165000 1.63657
170000 1.61503
174371 1.59730
178741 1.58020
178741 1.58019
180000 1.54932
185000 1.51269
190000 1.47787
195000 1.45438
200000 1.43184
205157 1.41106
210314 1.39109
210314 1.39109
210314 1.39109
210315 1.39109
213986 1.37285
217657 1.35516
221329 1.33798
225000 1.32130
225000 1.32130
225000 1.32130
231176 1.30080
237351 1.28115
240944 1.26795
245472 1.25392
250000 1.24029
250000 1.24029
250000 1.24029
256250 1.22407
262500 1.20845
268750 1.19339
275000 1.17885
281250 1.16629
287500 1.15413
293750 1.14235
300000 1.13094
300000 1.13094
300000 1.13094
305779 1.12164
311558 1.11258
311558 1.11258
311558 1.11258
316214 1.09919
320870 1.08616
325526 1.07346
330182 1.06109
330183 1.06109
336389 1.05039
342596 1.03999
348802 1.02988
355009 1.02004
355009 1.02004
359201 1.01406
363392 1.00819
367628 1.00258
367629 1.00258
371397 0.998023
375166 0.993533
378934 0.989108
382702 0.984746
386470 0.980446
390239 0.976206
394007 0.972025
397775 0.967901
400000 0.963026
404912 0.957413
409824 0.951899
414735 0.946483
419647 0.941160
426314 0.930571
432981 0.920263
439648 0.910223
446315 0.900442
452982 0.890909
459649 0.881614
466316 0.872548
472983 0.863701
472983 0.863701
472983 0.863701
479737 0.856325
486492 0.849114
493246 0.842062
500000 0.835163
500758 0.834605
500758 0.834605
508182 0.829040
508182 0.829040
513462 0.824592
518742 0.820214
523152 0.817442
527563 0.814703
531973 0.811996
536383 0.809320
536383 0.809320
536383 0.809320
541586 0.802367
546788 0.795540
546789 0.795540
552484 0.791101
552485 0.791100
559026 0.781326
565567 0.771784
572446 0.762333
579324 0.753108
584522 0.748529
589719 0.744017
589719 0.744017
600000 0.727243
605426 0.722241
610852 0.717317
610853 0.717316
617897 0.710814
624941 0.704443
624942 0.704442
630979 0.695878
630980 0.695877
639030 0.683056
639030 0.683056
646652 0.677516
654273 0.672085
661894 0.666759
669515 0.661536
677136 0.656413
684758 0.651386
692379 0.646452
700000 0.641609
706250 0.638439
712500 0.635312
718750 0.632228
725000 0.629185
731250 0.626182
737500 0.623220
743750 0.620296
750000 0.617410
756250 0.614561
762500 0.611749
768750 0.608973
775000 0.606231
781250 0.603524
787500 0.600850
793750 0.598209
800000 0.595600
806250 0.592418
812500 0.589277
818750 0.586177
825000 0.583116
831250 0.580094
837500 0.577111
843750 0.574165
850000 0.571255
856250 0.568381
862500 0.565543
868750 0.562739
875000 0.559969
881250 0.557232
887500 0.554527
893750 0.551855
900000 0.549214
906250 0.546538
912500 0.543893
918750 0.541280
925000 0.538696
931250 0.536142
937500 0.533617
943750 0.531120
950000 0.528652
956250 0.526211
962500 0.523797
968750 0.521409
975000 0.519048
987500 0.514403
1.00000E+06 0.509856
1.01250E+06 0.505356
1.02500E+06 0.500951
1.03750E+06 0.496637
1.05000E+06 0.492411
1.06250E+06 0.488270
1.07500E+06 0.484212
1.08750E+06 0.480234
1.10000E+06 0.476333
1.11250E+06 0.472593
1.12500E+06 0.468924
1.13750E+06 0.465324
1.15000E+06 0.461790
1.16250E+06 0.458321
1.17500E+06 0.454914
1.18750E+06 0.451568
1.20000E+06 0.448282
1.21250E+06 0.444903
1.22500E+06 0.441583
1.23750E+06 0.438322
1.25000E+06 0.435117
1.26250E+06 0.431967
1.27500E+06 0.428871
1.28750E+06 0.425827
1.30000E+06 0.422833
1.31250E+06 0.419966
1.32500E+06 0.417146
1.33750E+06 0.414371
1.35000E+06 0.411640
1.36250E+06 0.408952
1.37500E+06 0.406305
1.38750E+06 0.403700
1.40000E+06 0.401134
1.41250E+06 0.398668
1.42500E+06 0.396238
1.43750E+06 0.393844
1.45000E+06 0.391485
1.46250E+06 0.389160
1.47500E+06 0.386869
1.48750E+06 0.384610
1.50000E+06 0.382383
1.51250E+06 0.379933
1.52500E+06 0.377519
1.53750E+06 0.375140
1.55000E+06 0.372795
1.56250E+06 0.370483
1.57500E+06 0.368204
1.58750E+06 0.365956
1.60000E+06 0.363740
1.61250E+06 0.361593
1.62500E+06 0.359476
1.63750E+06 0.357387
1.65000E+06 0.355326
1.66250E+06 0.353292
1.67500E+06 0.351285
1.68750E+06 0.349304
1.70000E+06 0.347349
1.71250E+06 0.345435
1.72500E+06 0.343546
1.73750E+06 0.341681
1.75000E+06 0.339839
1.76250E+06 0.338020
1.77500E+06 0.336223
1.78750E+06 0.334449
1.80000E+06 0.332696
1.81250E+06 0.330970
1.82500E+06 0.329264
1.83750E+06 0.327579
1.85000E+06 0.325913
1.86250E+06 0.324267
1.87500E+06 0.322641
1.88750E+06 0.321033
1.90000E+06 0.319444
1.91250E+06 0.317853
1.92500E+06 0.316280
1.93750E+06 0.314726
1.95000E+06 0.313188
1.96250E+06 0.311668
1.97500E+06 0.310165
2.00000E+06 0.307209
2.01563E+06 0.304813
2.03125E+06 0.302455
2.04688E+06 0.300132
2.06250E+06 0.297844
2.07813E+06 0.295592
2.09375E+06 0.293372
2.10938E+06 0.291186
2.12500E+06 0.289032
2.14063E+06 0.286910
2.14844E+06 0.285860
2.15625E+06 0.284818
2.16406E+06 0.283784
2.17188E+06 0.282757
2.17969E+06 0.281737
2.18750E+06 0.280725
2.19531E+06 0.279720
2.20313E+06 0.278722
2.20703E+06 0.278226
2.21094E+06 0.277732
2.21484E+06 0.277239
2.21875E+06 0.276748
2.22266E+06 0.276258
2.22656E+06 0.275771
2.23047E+06 0.275285
2.23438E+06 0.274801
2.23828E+06 0.274318
2.24219E+06 0.273838
2.24609E+06 0.273358
2.25000E+06 0.272881
2.25391E+06 0.272515
2.25781E+06 0.272150
2.26172E+06 0.271787
2.26563E+06 0.271424
2.26953E+06 0.271062
2.27344E+06 0.270702
2.27734E+06 0.270343
2.28125E+06 0.269985
2.28516E+06 0.269627
2.28906E+06 0.269271
2.29297E+06 0.268916
2.29688E+06 0.268562
2.30078E+06 0.268210
2.30469E+06 0.267858
2.30859E+06 0.267507
2.31250E+06 0.267158
2.31641E+06 0.266809
2.32031E+06 0.266461
2.32422E+06 0.266115
2.32813E+06 0.265769
2.33203E+06 0.265425
2.33594E+06 0.265081
2.33984E+06 0.264739
2.34375E+06 0.264397
2.34766E+06 0.264057
2.35156E+06 0.263718
2.35547E+06 0.263379
2.35938E+06 0.263042
2.36328E+06 0.262705
2.36719E+06 0.262370
2.37109E+06 0.262035
2.37500E+06 0.261702
2.37891E+06 0.261369
2.38281E+06 0.261038
2.38672E+06 0.260707
2.39063E+06 0.260378
2.39453E+06 0.260049
2.39844E+06 0.259721
2.40234E+06 0.259394
2.40625E+06 0.259069
2.41016E+06 0.258744
2.41406E+06 0.258420
2.41797E+06 0.258097
2.42188E+06 0.257775
2.42578E+06 0.257453
2.42969E+06 0.257133
2.43359E+06 0.256814
2.43750E+06 0.256495
2.44141E+06 0.256178
2.44531E+06 0.255861
2.44922E+06 0.255545
2.45313E+06 0.255230
2.45703E+06 0.254916
2.46094E+06 0.254603
2.46484E+06 0.254291
2.46875E+06 0.253980
2.47266E+06 0.253669
2.47656E+06 0.253360
2.48047E+06 0.253051
2.48438E+06 0.252743
2.48828E+06 0.252436
2.49219E+06 0.252130
2.49609E+06 0.251825
2.50000E+06 0.251520
2.50391E+06 0.251145
2.50781E+06 0.250772
2.51172E+06 0.250400
2.51563E+06 0.250029
2.51953E+06 0.249659
2.52344E+06 0.249290
2.52734E+06 0.248922
2.53125E+06 0.248555
2.53516E+06 0.248190
2.53906E+06 0.247825
2.54297E+06 0.247462
2.54688E+06 0.247100
2.55078E+06 0.246739
2.55469E+06 0.246378
2.55859E+06 0.246019
2.56250E+06 0.245661
2.56641E+06 0.245304
2.57031E+06 0.244949
2.57422E+06 0.244594
2.57813E+06 0.244240
2.58203E+06 0.243887
2.58594E+06 0.243536
2.58984E+06 0.243185
2.59375E+06 0.242836
2.59766E+06 0.242487
2.60156E+06 0.242140
2.60547E+06 0.241793
2.60938E+06 0.241448
2.61328E+06 0.241103
2.61719E+06 0.240760
2.62109E+06 0.240417
2.62500E+06 0.240076
2.62891E+06 0.239735
2.63281E+06 0.239396
2.63672E+06 0.239057
2.64063E+06 0.238720
2.64453E+06 0.238383
2.64844E+06 0.238047
2.65234E+06 0.237713
2.65625E+06 0.237379
2.66016E+06 0.237046
2.66406E+06 0.236715
2.66797E+06 0.236384
2.67188E+06 0.236054
2.67578E+06 0.235725
2.67969E+06 0.235397
2.68359E+06 0.235070
2.68750E+06 0.234744
2.69141E+06 0.234419
2.69531E+06 0.234094
2.69922E+06 0.233771
2.70313E+06 0.233449
2.70703E+06 0.233127
2.71094E+06 0.232806
2.71484E+06 0.232487
2.71875E+06 0.232168
2.72266E+06 0.231850
2.72656E+06 0.231533
2.73047E+06 0.231217
2.73438E+06 0.230901
2.73828E+06 0.230587
2.74219E+06 0.230273
2.74609E+06 0.229961
2.75000E+06 0.229649
2.75391E+06 0.229177
2.75781E+06 0.228707
2.76172E+06 0.228239
2.76563E+06 0.227772
2.76953E+06 0.227307
2.77344E+06 0.226843
2.77734E+06 0.226381
2.78125E+06 0.225921
2.78516E+06 0.225462
2.78906E+06 0.225005
2.79297E+06 0.224549
2.79688E+06 0.224095
2.80078E+06 0.223642
2.80469E+06 0.223191
2.80859E+06 0.222742
2.81250E+06 0.222294
2.81641E+06 0.221847
2.82031E+06 0.221402
2.82422E+06 0.220959
2.82813E+06 0.220517
2.83203E+06 0.220076
2.83594E+06 0.219637
2.83984E+06 0.219200
2.84375E+06 0.218764
2.84766E+06 0.218329
2.85156E+06 0.217896
2.85547E+06 0.217465
2.85938E+06 0.217034
2.86328E+06 0.216606
2.86719E+06 0.216178
2.87109E+06 0.215752
2.87500E+06 0.215328
2.87891E+06 0.214905
2.88281E+06 0.214483
2.88672E+06 0.214063
2.89063E+06 0.213644
2.89453E+06 0.213226
2.89844E+06 0.212810
2.90234E+06 0.212396
2.90625E+06 0.211982
2.91016E+06 0.211570
2.91406E+06 0.211159
2.91797E+06 0.210750
2.92188E+06 0.210342
2.92578E+06 0.209935
2.92969E+06 0.209530
2.93359E+06 0.209126
2.93750E+06 0.208723
2.94141E+06 0.208322
2.94531E+06 0.207922
2.94922E+06 0.207523
2.95313E+06 0.207126
2.95703E+06 0.206729
2.96094E+06 0.206334
2.96484E+06 0.205941
2.96875E+06 0.205548
2.97266E+06 0.205157
2.97656E+06 0.204767
2.98047E+06 0.204379
2.98438E+06 0.203991
2.98828E+06 0.203605
2.99219E+06 0.203220
2.99609E+06 0.202836
3.00000E+06 0.202454
3.00391E+06 0.202080
3.00781E+06 0.201707
3.01172E+06 0.201335
3.01563E+06 0.200964
3.01953E+06 0.200595
3.02344E+06 0.200226
3.02734E+06 0.199859
3.03125E+06 0.199493
3.03516E+06 0.199128
3.03906E+06 0.198764
3.04297E+06 0.198402
3.04688E+06 0.198040
3.05078E+06 0.197680
3.05469E+06 0.197320
3.05859E+06 0.196962
3.06250E+06 0.196605
3.06641E+06 0.196249
3.07031E+06 0.195894
3.07422E+06 0.195540
3.07813E+06 0.195188
3.08203E+06 0.194836
3.08594E+06 0.194486
3.08984E+06 0.194136
3.09375E+06 0.193788
3.09766E+06 0.193440
3.10156E+06 0.193094
3.10547E+06 0.192749
3.10938E+06 0.192405
3.11328E+06 0.192061
3.11719E+06 0.191719
3.12109E+06 0.191378
3.12500E+06 0.191038
3.12891E+06 0.190699
3.13281E+06 0.190361
3.13672E+06 0.190024
3.14063E+06 0.189688
3.14453E+06 0.189353
3.14844E+06 0.189020
3.15234E+06 0.188687
3.15625E+06 0.188355
3.16016E+06 0.188024
3.16406E+06 0.187694
3.16797E+06 0.187365
3.17188E+06 0.187037
3.17578E+06 0.186710
3.17969E+06 0.186384
3.18359E+06 0.186059
3.18750E+06 0.185735
3.19141E+06 0.185412
3.19531E+06 0.185089
3.19922E+06 0.184768
3.20313E+06 0.184448
3.20703E+06 0.184129
3.21094E+06 0.183810
3.21484E+06 0.183493
3.21875E+06 0.183176
3.22266E+06 0.182861
3.22656E+06 0.182546
3.23047E+06 0.182232
3.23438E+06 0.181919
3.23828E+06 0.181607
3.24219E+06 0.181296
3.24609E+06 0.180986
3.25000E+06 0.180677
3.25391E+06 0.180369
3.25781E+06 0.180061
3.26172E+06 0.179755
3.26563E+06 0.179449
3.26953E+06 0.179145
3.27344E+06 0.178841
3.27734E+06 0.178538
3.28125E+06 0.178236
3.28516E+06 0.177934
3.28906E+06 0.177634
3.29297E+06 0.177335
3.29688E+06 0.177036
3.30078E+06 0.176738
3.30469E+06 0.176441
3.30859E+06 0.176145
3.31250E+06 0.175850
3.31641E+06 0.175555
3.32031E+06 0.175262
3.32422E+06 0.174969
3.32813E+06 0.174677
3.33203E+06 0.174386
3.33594E+06 0.174096
3.33984E+06 0.173806
3.34375E+06 0.173518
3.34766E+06 0.173230
3.35156E+06 0.172943
3.35547E+06 0.172657
3.35938E+06 0.172372
3.36328E+06 0.172087
3.36719E+06 0.171803
3.37109E+06 0.171520
3.37500E+06 0.171238
3.37891E+06 0.170957
3.38281E+06 0.170676
3.38672E+06 0.170396
3.39063E+06 0.170117
3.39453E+06 0.169839
3.39844E+06 0.169561
3.40234E+06 0.169285
3.40625E+06 0.169009
3.41016E+06 0.168734
3.41406E+06 0.168459
3.41797E+06 0.168186
3.42188E+06 0.167913
3.42578E+06 0.167640
3.42969E+06 0.167369
3.43359E+06 0.167098
3.43750E+06 0.166829
3.44141E+06 0.166559
3.44531E+06 0.166291
3.44922E+06 0.166023
3.45313E+06 0.165756
3.45703E+06 0.165490
3.46094E+06 0.165225
3.46484E+06 0.164960
3.46875E+06 0.164696
3.47266E+06 0.164432
3.47656E+06 0.164170
3.48047E+06 0.163908
3.48438E+06 0.163647
3.48828E+06 0.163386
3.49219E+06 0.163126
3.49609E+06 0.162867
3.50000E+06 0.162609
3.50391E+06 0.162286
3.50781E+06 0.161965
3.51172E+06 0.161644
3.51563E+06 0.161324
3.51953E+06 0.161005
3.52344E+06 0.160688
3.52734E+06 0.160371
3.53125E+06 0.160055
3.53516E+06 0.159740
3.53906E+06 0.159426
3.54297E+06 0.159113
3.54688E+06 0.158801
3.55078E+06 0.158490
3.55469E+06 0.158180
3.55859E+06 0.157871
3.56250E+06 0.157563
3.56641E+06 0.157256
3.57031E+06 0.156949
3.57422E+06 0.156644
3.57813E+06 0.156340
3.58203E+06 0.156036
3.58594E+06 0.155733
3.58984E+06 0.155432
3.59375E+06 0.155131
3.59766E+06 0.154831
3.60156E+06 0.154532
3.60547E+06 0.154234
3.60938E+06 0.153937
3.61328E+06 0.153641
3.61719E+06 0.153345
3.62109E+06 0.153051
3.62500E+06 0.152757
3.62891E+06 0.152464
3.63281E+06 0.152172
3.63672E+06 0.151882
3.64063E+06 0.151591
3.64453E+06 0.151302
3.64844E+06 0.151014
3.65234E+06 0.150726
3.65625E+06 0.150440
3.66016E+06 0.150154
3.66406E+06 0.149869
3.66797E+06 0.149585
3.67188E+06 0.149301
3.67578E+06 0.149019
3.67969E+06 0.148737
3.68359E+06 0.148456
3.68750E+06 0.148176
3.69141E+06 0.147897
3.69531E+06 0.147619
3.69922E+06 0.147341
3.70313E+06 0.147065
3.70703E+06 0.146789
3.71094E+06 0.146514
3.71484E+06 0.146239
3.71875E+06 0.145966
3.72266E+06 0.145693
3.72656E+06 0.145421
3.73047E+06 0.145150
3.73438E+06 0.144880
3.73828E+06 0.144610
3.74219E+06 0.144342
3.74609E+06 0.144074
3.75000E+06 0.143806
3.75391E+06 0.143540
3.75781E+06 0.143274
3.76172E+06 0.143010
3.76563E+06 0.142745
3.76953E+06 0.142482
3.77344E+06 0.142219
3.77734E+06 0.141958
3.78125E+06 0.141697
3.78516E+06 0.141436
3.78906E+06 0.141177
3.79297E+06 0.140918
3.79688E+06 0.140660
3.80078E+06 0.140402
3.80469E+06 0.140146
3.81250E+06 0.139635
3.82031E+06 0.139126
3.82813E+06 0.138621
3.83594E+06 0.138119
3.84375E+06 0.137619
3.85156E+06 0.137122
3.85938E+06 0.136628
3.86719E+06 0.136137
3.87500E+06 0.135649
3.88281E+06 0.135163
3.89063E+06 0.134680
3.89844E+06 0.134200
3.90625E+06 0.133722
3.91406E+06 0.133247
3.92188E+06 0.132775
3.92969E+06 0.132305
3.93750E+06 0.131838
3.94531E+06 0.131373
3.95313E+06 0.130911
3.96094E+06 0.130451
3.96875E+06 0.129994
3.97656E+06 0.129540
3.98438E+06 0.129088
3.99219E+06 0.128638
4.00000E+06 0.128191
4.00781E+06 0.127639
4.01563E+06 0.127091
4.02344E+06 0.126547
4.03125E+06 0.126005
4.03906E+06 0.125468
4.04688E+06 0.124933
4.05469E+06 0.124402
4.06250E+06 0.123874
4.07031E+06 0.123349
4.07813E+06 0.122827
4.08594E+06 0.122309
4.09375E+06 0.121794
4.10156E+06 0.121282
4.10938E+06 0.120773
4.11719E+06 0.120267
4.12500E+06 0.119764
4.13281E+06 0.119265
4.14063E+06 0.118768
4.14844E+06 0.118274
4.15625E+06 0.117784
4.16406E+06 0.117296
4.17188E+06 0.116811
4.17969E+06 0.116329
4.18750E+06 0.115850
4.19531E+06 0.115374
4.20313E+06 0.114900
4.21094E+06 0.114430
4.21875E+06 0.113962
4.22656E+06 0.113497
4.23438E+06 0.113035
4.24219E+06 0.112576
4.25000E+06 0.112119
4.25781E+06 0.111665
4.26563E+06 0.111213
4.27344E+06 0.110765
4.28125E+06 0.110318
4.28906E+06 0.109875
4.29688E+06 0.109434
4.30469E+06 0.108996
4.31250E+06 0.108560
4.32031E+06 0.108126
4.32813E+06 0.107696
4.33594E+06 0.107267
4.34375E+06 0.106841
4.35156E+06 0.106418
4.35938E+06 0.105997
4.36719E+06 0.105578
4.37500E+06 0.105162
4.38281E+06 0.104749
4.39063E+06 0.104337
4.39844E+06 0.103928
4.40625E+06 0.103521
4.41406E+06 0.103117
4.42188E+06 0.102715
4.42969E+06 0.102315
4.43750E+06 0.101917
4.44531E+06 0.101522
4.45313E+06 0.101129
4.46094E+06 0.100738
4.46875E+06 0.100349
4.47656E+06 0.0999624
4.48438E+06 0.0995780
4.49219E+06 0.0991957
4.50000E+06 0.0988156
4.50781E+06 0.0983601
4.51563E+06 0.0979075
4.52344E+06 0.0974578
4.53125E+06 0.0970109
4.53906E+06 0.0965668
4.54688E+06 0.0961256
4.55469E+06 0.0956870
4.56250E+06 0.0952513
4.57031E+06 0.0948182
4.57813E+06 0.0943879
4.58594E+06 0.0939602
4.59375E+06 0.0935352
4.60156E+06 0.0931129
4.60938E+06 0.0926931
4.61719E+06 0.0922760
4.62500E+06 0.0918614
4.63281E+06 0.0914494
4.64063E+06 0.0910400
4.64844E+06 0.0906330
4.65625E+06 0.0902286
4.66406E+06 0.0898266
4.67188E+06 0.0894271
4.67969E+06 0.0890300
4.68750E+06 0.0886353
4.69531E+06 0.0882431
4.70313E+06 0.0878532
4.71094E+06 0.0874657
4.71875E+06 0.0870805
4.72656E+06 0.0866977
4.73438E+06 0.0863172
4.74219E+06 0.0859390
4.74342E+06 0.0858795
4.75000E+06 0.0855630
4.75781E+06 0.0851893
4.76563E+06 0.0848179
4.77344E+06 0.0844486
4.78125E+06 0.0840817
4.78906E+06 0.0837168
4.79088E+06 0.0836323
4.79688E+06 0.0833542
4.80469E+06 0.0829937
4.81250E+06 0.0826353
4.82031E+06 0.0822791
4.82813E+06 0.0819250
4.83594E+06 0.0815729
4.84375E+06 0.0812230
4.84627E+06 0.0811106
4.85156E+06 0.0808751
4.85938E+06 0.0805293
4.86719E+06 0.0801854
4.87129E+06 0.0800057
4.87500E+06 0.0798437
4.88281E+06 0.0795038
4.89063E+06 0.0791660
4.89844E+06 0.0788302
4.90188E+06 0.0786828
4.90625E+06 0.0784963
4.90711E+06 0.0784597
4.91406E+06 0.0781644
4.91999E+06 0.0779138
4.92188E+06 0.0778344
4.92969E+06 0.0775063
4.93750E+06 0.0771801
4.94531E+06 0.0768557
4.95313E+06 0.0765333
4.95934E+06 0.0762781
4.96094E+06 0.0762127
4.96875E+06 0.0758940
4.97091E+06 0.0758062
4.97656E+06 0.0755771
4.98438E+06 0.0752620
4.99219E+06 0.0749487
5.00000E+06 0.0746372
5.00781E+06 0.0742766
5.00956E+06 0.0741963
5.01563E+06 0.0739183
5.02344E+06 0.0735623
5.03125E+06 0.0732086
5.03441E+06 0.0730661
5.03906E+06 0.0728571
5.04688E+06 0.0725078
5.05469E+06 0.0721607
5.06250E+06 0.0718159
5.07031E+06 0.0714732
5.07326E+06 0.0713445
5.07813E+06 0.0711327
5.08594E+06 0.0707943
5.09127E+06 0.0705645
5.09375E+06 0.0704580
5.10156E+06 0.0701239
5.10938E+06 0.0697918
5.11553E+06 0.0695317
5.11694E+06 0.0694723
5.11719E+06 0.0694618
5.12500E+06 0.0691339
5.13112E+06 0.0688785
5.13281E+06 0.0688080
5.14063E+06 0.0684842
5.14844E+06 0.0681623
5.15296E+06 0.0679769
5.15625E+06 0.0678425
5.16406E+06 0.0675246
5.16443E+06 0.0675097
5.17188E+06 0.0672087
5.17440E+06 0.0671071
5.17969E+06 0.0668948
5.18174E+06 0.0668126
5.18750E+06 0.0665828
5.19531E+06 0.0662727
5.19946E+06 0.0661089
5.20157E+06 0.0660257
5.20313E+06 0.0659645
5.21094E+06 0.0656582
5.21284E+06 0.0655839
5.21875E+06 0.0653538
5.22656E+06 0.0650513
5.23267E+06 0.0648161
5.23438E+06 0.0647506
5.23810E+06 0.0646079
5.24219E+06 0.0644517
5.24404E+06 0.0643811
5.25000E+06 0.0641547
5.25470E+06 0.0639769
5.25781E+06 0.0638594
5.26356E+06 0.0636434
5.26563E+06 0.0635660
5.27344E+06 0.0632744
5.27795E+06 0.0631067
5.28125E+06 0.0629845
5.28127E+06 0.0629837
5.28906E+06 0.0626963
5.28942E+06 0.0626832
5.29688E+06 0.0624100
5.29999E+06 0.0622962
5.30469E+06 0.0621253
5.31250E+06 0.0618423
5.31486E+06 0.0617572
5.32031E+06 0.0615611
5.32525E+06 0.0613842
5.32813E+06 0.0612815
5.33028E+06 0.0612047
5.33431E+06 0.0610614
5.33594E+06 0.0610036
5.34375E+06 0.0607274
5.35041E+06 0.0604932
5.35156E+06 0.0604528
5.35938E+06 0.0601799
5.36550E+06 0.0599671
5.36719E+06 0.0599086
5.37500E+06 0.0596389
5.37612E+06 0.0596004
5.38160E+06 0.0594123
5.38281E+06 0.0593708
5.38462E+06 0.0593090
5.39063E+06 0.0591043
5.39620E+06 0.0589151
5.39844E+06 0.0588394
5.40485E+06 0.0586231
5.40625E+06 0.0585761
5.40777E+06 0.0585250
5.41406E+06 0.0583143
5.42188E+06 0.0580540
5.42969E+06 0.0577953
5.43750E+06 0.0575381
5.44531E+06 0.0572824
5.45313E+06 0.0570283
5.45970E+06 0.0568155
5.46094E+06 0.0567756
5.46875E+06 0.0565244
5.47656E+06 0.0562746
5.48438E+06 0.0560263
5.49219E+06 0.0557795
5.50000E+06 0.0555341
5.51563E+06 0.0549837
5.53125E+06 0.0544403
5.54688E+06 0.0539038
5.56250E+06 0.0533740
5.56905E+06 0.0531540
5.57813E+06 0.0528510
5.59375E+06 0.0523345
5.60938E+06 0.0518244
5.62500E+06 0.0513207
5.64063E+06 0.0508233
5.64328E+06 0.0507394
5.64458E+06 0.0506984
5.65625E+06 0.0503321
5.67188E+06 0.0498470
5.67479E+06 0.0497571
5.68750E+06 0.0493678
5.69495E+06 0.0491414
5.70313E+06 0.0488946
5.71875E+06 0.0484271
5.72549E+06 0.0482273
5.73438E+06 0.0479654
5.74336E+06 0.0477025
5.74456E+06 0.0476675
5.75000E+06 0.0475094
5.76563E+06 0.0470588
5.78125E+06 0.0466138
5.79688E+06 0.0461742
5.81250E+06 0.0457398
5.82813E+06 0.0453107
5.83208E+06 0.0452029
5.83574E+06 0.0451035
5.84375E+06 0.0448868
5.85027E+06 0.0447114
5.85938E+06 0.0444679
5.87500E+06 0.0440541
5.89021E+06 0.0436560
5.89063E+06 0.0436452
5.90625E+06 0.0432411
5.91603E+06 0.0429907
5.92188E+06 0.0428419
5.93750E+06 0.0424473
5.95313E+06 0.0420575
5.95626E+06 0.0419798
5.96247E+06 0.0418265
5.96694E+06 0.0417166
5.96875E+06 0.0416722
5.97754E+06 0.0414574
5.98438E+06 0.0412914
6.00000E+06 0.0409151
6.01289E+06 0.0405724
6.01563E+06 0.0405001
6.01661E+06 0.0404741
6.02816E+06 0.0401710
6.03125E+06 0.0400904
6.04688E+06 0.0396858
6.06250E+06 0.0392864
6.07813E+06 0.0388920
6.09375E+06 0.0385025
6.10304E+06 0.0382733
6.10938E+06 0.0381179
6.11343E+06 0.0380189
6.12500E+06 0.0377382
6.14063E+06 0.0373632
6.15625E+06 0.0369928
6.15818E+06 0.0369474
6.17188E+06 0.0366270
6.18012E+06 0.0364359
6.18082E+06 0.0364197
6.18750E+06 0.0362658
6.20313E+06 0.0359090
6.20379E+06 0.0358940
6.21087E+06 0.0357338
6.21560E+06 0.0356274
6.21655E+06 0.0356060
6.21875E+06 0.0355567
6.23438E+06 0.0352086
6.24340E+06 0.0350095
6.24604E+06 0.0349516
6.24774E+06 0.0349143
6.25000E+06 0.0348648
6.26563E+06 0.0345253
6.26787E+06 0.0344768
6.28125E+06 0.0341898
6.28699E+06 0.0340676
6.29140E+06 0.0339741
6.29165E+06 0.0339688
6.29540E+06 0.0338896
6.29688E+06 0.0338585
6.31250E+06 0.0335311
6.31285E+06 0.0335238
6.32624E+06 0.0332465
6.32813E+06 0.0332077
6.34375E+06 0.0328883
6.35938E+06 0.0325726
6.37500E+06 0.0322608
6.39063E+06 0.0319527
6.40625E+06 0.0316483
6.42188E+06 0.0313475
6.43750E+06 0.0310503
6.45313E+06 0.0307567
6.46875E+06 0.0304665
6.48438E+06 0.0301797
6.50000E+06 0.0298963
6.51175E+06 0.0296679
6.52350E+06 0.0294416
6.53526E+06 0.0292174
6.54701E+06 0.0289954
6.57051E+06 0.0285575
6.59401E+06 0.0281278
6.61752E+06 0.0277060
6.64102E+06 0.0272921
6.66452E+06 0.0268857
6.68803E+06 0.0264868
6.71153E+06 0.0260951
6.73503E+06 0.0257107
6.75854E+06 0.0253331
6.78204E+06 0.0249624
6.80554E+06 0.0245984
6.82904E+06 0.0242409
6.85255E+06 0.0238899
6.87605E+06 0.0235450
6.89154E+06 0.0233211
6.90704E+06 0.0230997
6.92253E+06 0.0228810
6.93803E+06 0.0226648
6.95352E+06 0.0224511
6.96901E+06 0.0222400
6.98451E+06 0.0220312
7.00000E+06 0.0218249
7.02957E+06 0.0214239
7.03125E+06 0.0214013
7.06250E+06 0.0209877
7.09375E+06 0.0205839
7.12500E+06 0.0201896
7.15625E+06 0.0198045
7.18750E+06 0.0194284
7.21875E+06 0.0190610
7.25000E+06 0.0187021
7.28125E+06 0.0183514
7.31250E+06 0.0180088
7.34375E+06 0.0176740
7.37500E+06 0.0173469
7.40625E+06 0.0170271
7.43750E+06 0.0167145
7.46875E+06 0.0164089
7.50000E+06 0.0161102
7.53125E+06 0.0158193
7.56250E+06 0.0155349
7.59375E+06 0.0152567
7.62500E+06 0.0149846
7.65625E+06 0.0147184
7.68750E+06 0.0144580
7.71875E+06 0.0142032
7.75000E+06 0.0139540
7.78125E+06 0.0137101
7.81250E+06 0.0134714
7.84375E+06 0.0132378
7.87500E+06 0.0130091
7.90625E+06 0.0127853
7.93750E+06 0.0125662
7.96875E+06 0.0123516
8.00000E+06 0.0121416
8.03125E+06 0.0119431
8.06250E+06 0.0117485
8.09375E+06 0.0115579
8.12500E+06 0.0113711
8.15625E+06 0.0111880
8.18750E+06 0.0110085
8.21875E+06 0.0108326
8.25000E+06 0.0106601
8.28125E+06 0.0104910
8.31250E+06 0.0103253
8.34375E+06 0.0101627
8.37500E+06 0.0100033
8.40625E+06 0.00984700
8.43750E+06 0.00969369
8.46875E+06 0.00954332
8.50000E+06 0.00939583
8.53125E+06 0.00925929
8.56250E+06 0.00912522
8.59375E+06 0.00899356
8.62500E+06 0.00886428
8.68750E+06 0.00861261
8.75000E+06 0.00836981
8.81250E+06 0.00813551
8.87500E+06 0.00790936
8.93750E+06 0.00769102
9.00000E+06 0.00748016
9.06250E+06 0.00728672
9.12500E+06 0.00709956
9.18750E+06 0.00691844
9.25000E+06 0.00674312
9.31250E+06 0.00657338
9.37500E+06 0.00640900
9.43750E+06 0.00624979
9.50000E+06 0.00609554
9.56250E+06 0.00596083
9.62500E+06 0.00582995
9.68750E+06 0.00570276
9.75000E+06 0.00557913
9.81250E+06 0.00545895
9.87500E+06 0.00534210
9.93750E+06 0.00522846
1.00000E+07 0.00511793
1.00625E+07 0.00502644
1.01250E+07 0.00493714
1.01875E+07 0.00484996
1.02470E+07 0.00476888
1.02500E+07 0.00476484
1.03125E+07 0.00468171
1.03750E+07 0.00460053
1.04375E+07 0.00452122
1.05000E+07 0.00444375
1.05625E+07 0.00436729
1.06250E+07 0.00429259
1.06875E+07 0.00421959
1.07500E+07 0.00414825
1.08125E+07 0.00407852
1.08750E+07 0.00401035
1.09375E+07 0.00394370
1.10000E+07 0.00387853
1.10625E+07 0.00381874
1.11250E+07 0.00376020
1.11875E+07 0.00370287
1.12500E+07 0.00364674
1.13125E+07 0.00359175
1.13750E+07 0.00353790
1.14375E+07 0.00348513
1.15000E+07 0.00343344
1.15625E+07 0.00338460
1.16118E+07 0.00334672
1.16250E+07 0.00333671
1.16875E+07 0.00328976
1.17473E+07 0.00324567
1.17500E+07 0.00324370
1.18125E+07 0.00319853
1.18730E+07 0.00315563
1.18750E+07 0.00315423
1.19375E+07 0.00311076
1.20000E+07 0.00306812
1.20625E+07 0.00302799
1.21250E+07 0.00298859
1.21875E+07 0.00294990
1.22474E+07 0.00291348
1.22500E+07 0.00291191
1.23125E+07 0.00287459
1.23750E+07 0.00283794
1.24375E+07 0.00280194
1.25000E+07 0.00276657
1.26250E+07 0.00270123
1.27475E+07 0.00263929
1.27500E+07 0.00263805
1.28750E+07 0.00257694
1.30000E+07 0.00251782
1.31250E+07 0.00246417
1.32476E+07 0.00241313
1.32500E+07 0.00241215
1.33750E+07 0.00236170
1.35000E+07 0.00231276
1.35615E+07 0.00228988
1.36233E+07 0.00226721
1.36250E+07 0.00226659
1.36854E+07 0.00224476
1.37477E+07 0.00222257
1.37500E+07 0.00222175
1.38104E+07 0.00220055
1.38505E+07 0.00218663
1.38733E+07 0.00217878
1.38750E+07 0.00217819
1.39365E+07 0.00215722
1.40000E+07 0.00213587
1.41250E+07 0.00209392
1.42500E+07 0.00205315
1.43750E+07 0.00201352
1.45000E+07 0.00197499
1.46234E+07 0.00193483
1.46250E+07 0.00193432
1.47479E+07 0.00189547
1.47500E+07 0.00189482
1.48105E+07 0.00187611
1.48734E+07 0.00185694
1.48750E+07 0.00185645
1.49366E+07 0.00183795
1.50000E+07 0.00181917
1.50616E+07 0.00179998
1.51235E+07 0.00178099
1.51250E+07 0.00178053
1.51856E+07 0.00176220
1.52480E+07 0.00174361
1.52500E+07 0.00174302
1.53735E+07 0.00170702
1.53750E+07 0.00170659
1.55000E+07 0.00167121
1.56223E+07 0.00162874
1.57446E+07 0.00158767
1.58668E+07 0.00154794
1.59891E+07 0.00150950
1.60000E+07 0.00150613
1.60617E+07 0.00148758
1.60926E+07 0.00147840
1.61236E+07 0.00146927
1.61250E+07 0.00146886
1.61546E+07 0.00146021
1.61857E+07 0.00145120
1.62169E+07 0.00144223
1.62481E+07 0.00143333
1.62500E+07 0.00143279
1.62794E+07 0.00142448
1.63107E+07 0.00141569
1.63421E+07 0.00140695
1.63736E+07 0.00139826
1.63750E+07 0.00139787
1.64367E+07 0.00138105
1.64683E+07 0.00137253
1.65000E+07 0.00136406
1.65617E+07 0.00134699
1.65926E+07 0.00133855
1.66236E+07 0.00133014
1.66250E+07 0.00132977
1.66546E+07 0.00132181
1.66857E+07 0.00131352
1.67169E+07 0.00130526
1.67481E+07 0.00129708
1.67500E+07 0.00129658
1.67794E+07 0.00128893
1.68107E+07 0.00128086
1.68421E+07 0.00127282
1.68736E+07 0.00126482
1.68750E+07 0.00126446
1.69367E+07 0.00124899
1.70000E+07 0.00123337
1.71237E+07 0.00120279
1.71250E+07 0.00120247
1.71858E+07 0.00118781
1.72170E+07 0.00118037
1.72482E+07 0.00117299
1.72500E+07 0.00117257
1.72795E+07 0.00116565
1.73108E+07 0.00115837
1.73422E+07 0.00115112
1.73736E+07 0.00114393
1.73750E+07 0.00114361
1.74051E+07 0.00113678
1.74367E+07 0.00112966
1.75000E+07 0.00111557
1.75308E+07 0.00110880
1.75617E+07 0.00110205
1.75927E+07 0.00109534
1.76237E+07 0.00108868
1.76250E+07 0.00108840
1.76547E+07 0.00108207
1.76858E+07 0.00107549
1.77170E+07 0.00106894
1.77482E+07 0.00106245
1.77500E+07 0.00106208
1.77795E+07 0.00105598
1.78108E+07 0.00104957
1.78422E+07 0.00104318
1.78737E+07 0.00103683
1.78750E+07 0.00103657
1.79052E+07 0.00103052
1.79367E+07 0.00102427
1.79683E+07 0.00101804
1.80000E+07 0.00101184
1.81250E+07 0.000987970
1.82500E+07 0.000964821
1.85000E+07 0.000920582
1.87500E+07 0.000880160
1.90000E+07 0.000842014
1.90309E+07 0.000837445
1.90618E+07 0.000832908
1.90928E+07 0.000828389
1.91238E+07 0.000823901
1.91549E+07 0.000819430
1.91860E+07 0.000814991
1.92172E+07 0.000810569
1.92484E+07 0.000806178
1.92500E+07 0.000805954
1.92797E+07 0.000801804
1.93110E+07 0.000797461
1.93738E+07 0.000788839
1.94053E+07 0.000784559
1.94368E+07 0.000780310
1.94684E+07 0.000776077
1.95000E+07 0.000771874
1.95309E+07 0.000768357
1.95618E+07 0.000764862
1.95928E+07 0.000761378
1.96238E+07 0.000757914
1.96393E+07 0.000756190
1.96549E+07 0.000754461
1.96704E+07 0.000752747
1.96860E+07 0.000751028
1.97172E+07 0.000747606
1.97484E+07 0.000744205
1.97500E+07 0.000744031
1.97797E+07 0.000740814
1.98110E+07 0.000737443
1.98424E+07 0.000734083
1.98738E+07 0.000730743
1.99053E+07 0.000727413
1.99368E+07 0.000724103
1.99684E+07 0.000720804
2.00000E+07 0.000717524
