Hg-204(n,tot) ENDFB-8.0
Energy(eV) XS(b)
1.00000E-05 124.656
1.03125E-05 122.848
1.06250E-05 121.122
1.09375E-05 119.471
1.12500E-05 117.891
1.15625E-05 116.377
1.18750E-05 114.924
1.21875E-05 113.528
1.25000E-05 112.187
1.28125E-05 110.895
1.31250E-05 109.651
1.37500E-05 107.294
1.43750E-05 105.096
1.50000E-05 103.040
1.56250E-05 101.112
1.62500E-05 99.2991
1.68750E-05 97.5904
1.75000E-05 95.9766
1.81250E-05 94.4494
1.87500E-05 93.0014
1.93750E-05 91.6263
2.00000E-05 90.3181
2.05191E-05 89.2789
2.10381E-05 88.2797
2.15572E-05 87.3180
2.20762E-05 86.3917
2.31144E-05 84.6369
2.41525E-05 83.0006
2.51906E-05 81.4705
2.62287E-05 80.0358
2.72668E-05 78.6873
2.83049E-05 77.4169
2.93431E-05 76.2175
3.03812E-05 75.0831
3.14193E-05 74.0080
3.24574E-05 72.9876
3.34955E-05 72.0173
3.45337E-05 71.0935
3.55718E-05 70.2126
3.66099E-05 69.3716
3.82837E-05 68.0925
3.99574E-05 66.8994
4.16312E-05 65.7834
4.33049E-05 64.7370
4.49787E-05 63.7534
4.66525E-05 62.8269
4.83262E-05 61.9524
5.00000E-05 61.1254
5.18561E-05 60.2592
5.37121E-05 59.4418
5.55682E-05 58.6690
5.74243E-05 57.9371
5.92803E-05 57.2428
6.11364E-05 56.5832
6.29924E-05 55.9556
6.48485E-05 55.3577
6.67046E-05 54.7873
6.85606E-05 54.2425
7.04167E-05 53.7216
7.22728E-05 53.2229
7.59849E-05 52.2867
7.96970E-05 51.4238
8.22349E-05 50.8716
8.47728E-05 50.3473
8.73106E-05 49.8487
8.98485E-05 49.3741
9.23864E-05 48.9216
9.49243E-05 48.4897
0.000100000 47.6822
0.000103756 47.1284
0.000107512 46.6079
0.000111268 46.1178
0.000115024 45.6555
0.000118780 45.2187
0.000122536 44.8052
0.000126292 44.4132
0.000130047 44.0412
0.000133803 43.6875
0.000137559 43.3508
0.000145071 42.7240
0.000152583 42.1523
0.000160095 41.6287
0.000165083 41.3047
0.000170071 40.9978
0.000180047 40.4304
0.000190024 39.9174
0.000200000 39.4513
0.000208192 39.0994
0.000216383 38.7722
0.000224575 38.4671
0.000232766 38.1820
0.000240957 37.9150
0.000249149 37.6645
0.000257340 37.4290
0.000265532 37.2072
0.000281915 36.8003
0.000298298 36.4360
0.000314680 36.1079
0.000331063 35.8111
0.000352180 35.4677
0.000373298 35.1619
0.000394415 34.8880
0.000415532 34.6412
0.000436649 34.4177
0.000457766 34.2144
0.000478883 34.0287
0.000500000 33.8584
0.000525010 33.6741
0.000550019 33.5064
0.000575029 33.3530
0.000600039 33.2123
0.000625049 33.0827
0.000650058 32.9629
0.000700078 32.7488
0.000750097 32.5629
0.000800116 32.4001
0.000850136 32.2561
0.000900155 32.1280
0.000950078 32.0135
0.00100000 31.9102
0.00104971 31.8171
0.00109941 31.7322
0.00119883 31.5833
0.00129824 31.4568
0.00139766 31.3481
0.00149707 31.2535
0.00159648 31.1706
0.00169590 31.0971
0.00179531 31.0316
0.00189766 30.9712
0.00200000 30.9168
0.00220356 30.8233
0.00240711 30.7452
0.00261067 30.6789
0.00281422 30.6219
0.00301777 30.5723
0.00322133 30.5287
0.00342488 30.4901
0.00362844 30.4557
0.00397133 30.4053
0.00431422 30.3626
0.00465711 30.3259
0.00500000 30.2939
0.00556770 30.2491
0.00613539 30.2121
0.00670309 30.1809
0.00727078 30.1542
0.00783848 30.1310
0.00840617 30.1108
0.00897387 30.0928
0.00954156 30.0768
0.0100000 30.0651
0.0111352 30.0398
0.0122705 30.0186
0.0134057 30.0006
0.0145409 29.9850
0.0156762 29.9713
0.0168114 29.9592
0.0179467 29.9485
0.0190819 29.9388
0.0200000 29.9316
0.0213250 29.9223
0.0226500 29.9140
0.0239750 29.9067
0.0253000 29.9004
0.0274227 29.8922
0.0295453 29.8855
0.0337906 29.8749
0.0380359 29.8664
0.0422813 29.8595
0.0461406 29.8542
0.0500000 29.8496
0.0549687 29.8444
0.0599374 29.8400
0.0698749 29.8327
0.0798123 29.8269
0.0897498 29.8222
0.100000 29.8180
0.116776 29.8125
0.133552 29.8080
0.150328 29.8043
0.167104 29.8011
0.183552 29.7984
0.200000 29.7959
0.231769 29.7920
0.263537 29.7887
0.295306 29.7858
0.327074 29.7833
0.370306 29.7804
0.413537 29.7779
0.500000 29.7737
0.658794 29.7677
0.817587 29.7633
1.00000 29.7592
1.00183 29.7592
1.00708 29.7591
1.01232 29.7590
1.02281 29.7588
1.04379 29.7584
1.08575 29.7576
1.16967 29.7561
1.33751 29.7535
1.67320 29.7492
1.97836 29.7460
2.00000 29.7458
2.08299 29.7451
2.16598 29.7443
2.33196 29.7429
2.66393 29.7404
3.32785 29.7362
4.16393 29.7320
5.00000 29.7286
7.22969 29.7219
9.45939 29.7170
10.0000 29.7159
11.1141 29.7140
12.2281 29.7123
14.4562 29.7093
18.9125 29.7044
20.0000 29.7033
23.9890 29.7001
27.9779 29.6973
35.9558 29.6927
50.0000 29.6868
70.3155 29.6806
90.6309 29.6760
100.000 29.6743
120.314 29.6710
140.628 29.6681
181.256 29.6635
200.000 29.6617
239.848 29.6585
279.696 29.6557
359.391 29.6512
492.201 29.6456
625.010 29.6412
812.505 29.6365
1000.00 29.6315
1111.33 28.9064
1222.66 28.2590
1333.99 27.6830
1445.31 27.1632
1556.64 26.6894
1667.97 26.2569
1779.30 25.8584
1890.63 25.4898
2000.00 25.1531
2156.25 24.7123
2312.50 24.3071
2468.75 23.9342
2625.00 23.5891
2781.25 23.2683
2937.50 22.9689
3093.75 22.6885
3250.00 22.4251
3468.75 22.0836
3687.50 21.7656
3906.25 21.4716
4125.00 21.1972
4343.75 20.9398
4562.50 20.7001
5000.00 20.2533
5250.00 20.0211
5500.00 19.8021
6062.50 19.3513
6625.00 18.9496
7187.50 18.5879
7750.00 18.2596
8312.50 17.9595
8875.00 17.6836
9437.50 17.4286
10000.0 17.1917
11113.3 16.8969
12226.6 16.6324
13339.9 16.3955
14453.1 16.1805
15566.4 15.9834
16679.7 15.8025
17793.0 15.6352
18906.3 15.4796
20000.0 15.3369
21562.5 15.1491
23125.0 14.9757
24687.5 14.8152
26250.0 14.6661
29375.0 14.3965
32500.0 14.1583
34687.5 14.0077
36875.0 13.8670
41250.0 13.6137
45625.0 13.3904
50000.0 13.1886
52500.0 13.0830
55000.0 12.9831
60625.0 12.7766
66250.0 12.5912
71875.0 12.4234
77500.0 12.2702
83125.0 12.1294
88750.0 11.9993
94375.0 11.8784
100000 11.7657
105000 11.5948
110000 11.4342
115000 11.2827
120000 11.1397
125000 11.0041
130000 10.8754
135000 10.7530
140000 10.6364
150000 10.4186
160000 10.2189
170000 10.0348
180000 9.86423
190000 9.70557
200000 9.55741
210000 9.41859
220000 9.28810
230000 9.16510
240000 9.04887
250000 8.93876
260000 8.83424
270000 8.73482
280000 8.64007
300000 8.46313
320000 8.30090
340000 8.15135
360000 8.01282
380000 7.88394
400000 7.76360
420000 7.65082
429330 7.57597
438659 7.50346
438710 7.50307
448790 7.42732
458871 7.35405
461708 7.33387
470370 7.27247
479032 7.21400
491225 7.13229
503417 7.05581
511386 7.00591
519355 6.95811
527443 6.90885
535532 6.86160
551708 6.77280
559677 6.72949
569758 6.67411
579839 6.62140
589919 6.57125
600000 6.52352
625000 6.40784
650000 6.30131
675000 6.20302
700000 6.11222
750000 5.93250
800000 5.77699
850000 5.66887
900000 5.57212
945191 5.49321
950000 5.48525
1.00000E+06 5.40702
1.06694E+06 5.37796
1.13388E+06 5.35221
1.13388E+06 5.35221
1.13390E+06 5.35220
1.16292E+06 5.34125
1.19195E+06 5.33060
1.25000E+06 5.31014
1.37500E+06 5.39646
1.50000E+06 5.47649
1.75000E+06 5.82896
1.83764E+06 5.94535
1.83764E+06 5.94536
1.84408E+06 5.95380
1.85051E+06 5.96221
1.85548E+06 5.96871
1.86045E+06 5.97519
1.86046E+06 5.97519
1.86490E+06 5.98094
1.86934E+06 5.98668
1.87823E+06 5.99813
1.89853E+06 6.02429
1.91882E+06 6.05025
1.93808E+06 6.07515
1.95733E+06 6.09989
1.95733E+06 6.09989
1.96252E+06 6.10628
1.96771E+06 6.11268
1.97809E+06 6.12550
1.99884E+06 6.15116
2.00000E+06 6.15255
2.01239E+06 6.17025
2.02478E+06 6.18782
2.04957E+06 6.22263
2.07435E+06 6.25700
2.09913E+06 6.29092
2.10566E+06 6.29997
2.11220E+06 6.30900
2.12526E+06 6.32695
2.13833E+06 6.34476
2.15139E+06 6.36245
2.15767E+06 6.37120
2.16395E+06 6.37991
2.17651E+06 6.39725
2.20163E+06 6.43155
2.20164E+06 6.43155
2.20190E+06 6.43192
2.21992E+06 6.45644
2.23795E+06 6.48071
2.27399E+06 6.52853
2.27399E+06 6.52853
2.27420E+06 6.52881
2.27642E+06 6.53174
2.31178E+06 6.57800
2.31210E+06 6.57842
2.33065E+06 6.60247
2.35095E+06 6.62856
2.38710E+06 6.67449
2.40605E+06 6.69831
2.40795E+06 6.70069
2.41370E+06 6.70812
2.41946E+06 6.71554
2.43096E+06 6.73030
2.45398E+06 6.75960
2.47699E+06 6.78858
2.50000E+06 6.81726
2.54715E+06 6.86110
2.59430E+06 6.90457
2.64145E+06 6.94768
2.68860E+06 6.99043
2.69225E+06 6.99370
2.73757E+06 7.03408
2.73757E+06 7.03408
2.74018E+06 7.03640
2.74019E+06 7.03641
2.75000E+06 7.04522
2.76918E+06 7.06234
2.77395E+06 7.06659
2.77395E+06 7.06659
2.78055E+06 7.07247
2.78714E+06 7.07834
2.80033E+06 7.09005
2.82670E+06 7.11331
2.82671E+06 7.11331
2.82671E+06 7.11331
2.82671E+06 7.11331
2.82691E+06 7.11349
2.82691E+06 7.11349
2.83652E+06 7.12213
2.84612E+06 7.13074
2.86293E+06 7.14541
2.87974E+06 7.16002
2.91335E+06 7.18906
2.95668E+06 7.22453
3.00000E+06 7.25967
3.04574E+06 7.27409
3.09149E+06 7.28785
3.13723E+06 7.30097
3.18297E+06 7.31346
3.22871E+06 7.32534
3.27446E+06 7.33663
3.32020E+06 7.34735
3.36594E+06 7.35750
3.43297E+06 7.37676
3.50000E+06 7.39479
3.55797E+06 7.40881
3.61595E+06 7.42206
3.67392E+06 7.43457
3.73189E+06 7.44636
3.75000E+06 7.45102
3.81250E+06 7.46615
3.87500E+06 7.48045
3.93750E+06 7.49396
4.00000E+06 7.50669
4.06250E+06 7.48567
4.12500E+06 7.46488
4.17055E+06 7.44987
4.18750E+06 7.44432
4.25000E+06 7.42397
4.31250E+06 7.40383
4.37500E+06 7.38389
4.43750E+06 7.36414
4.50000E+06 7.34458
4.56250E+06 7.32600
4.62500E+06 7.30760
4.68750E+06 7.28938
4.75000E+06 7.27133
4.81250E+06 7.25391
4.87500E+06 7.23663
4.93750E+06 7.21950
5.00000E+06 7.20252
5.06250E+06 7.15852
5.12500E+06 7.11527
5.18750E+06 7.07276
5.25000E+06 7.03096
5.31250E+06 6.98984
5.37500E+06 6.94940
5.43750E+06 6.90961
5.50000E+06 6.87044
5.56250E+06 6.83227
5.62500E+06 6.79469
5.68750E+06 6.75768
5.75000E+06 6.72122
5.81250E+06 6.68531
5.87500E+06 6.64992
6.00000E+06 6.58066
6.06345E+06 6.53465
6.12689E+06 6.48947
6.19034E+06 6.44511
6.25378E+06 6.40154
6.31723E+06 6.35873
6.38067E+06 6.31666
6.44412E+06 6.27532
6.50756E+06 6.23468
6.63067E+06 6.15729
6.75378E+06 6.08237
6.87689E+06 6.00977
7.00000E+06 5.93940
7.01513E+06 5.93092
7.13635E+06 5.86360
7.25757E+06 5.79824
7.37878E+06 5.73474
7.45379E+06 5.69634
7.50000E+06 5.67301
7.52773E+06 5.65917
7.52773E+06 5.65916
7.53276E+06 5.65651
7.64580E+06 5.59842
7.76387E+06 5.54088
7.88193E+06 5.48636
8.00000E+06 5.43472
8.03909E+06 5.42346
8.07817E+06 5.41240
8.11726E+06 5.40153
8.15634E+06 5.39087
8.19543E+06 5.38040
8.23451E+06 5.37012
8.27360E+06 5.36004
8.31269E+06 5.35014
8.35177E+06 5.34043
8.39086E+06 5.33091
8.42994E+06 5.32157
8.46903E+06 5.31241
8.54720E+06 5.29463
8.62537E+06 5.27756
8.70354E+06 5.26117
8.78171E+06 5.24546
8.85988E+06 5.23041
8.93806E+06 5.21602
9.01623E+06 5.20226
9.09440E+06 5.18912
9.17257E+06 5.17660
9.25074E+06 5.16468
9.29757E+06 5.15417
9.34440E+06 5.14391
9.39123E+06 5.13390
9.43806E+06 5.12415
9.48488E+06 5.11464
9.53171E+06 5.10537
9.57854E+06 5.09634
9.62537E+06 5.08755
9.67220E+06 5.07900
9.69251E+06 5.07536
9.71903E+06 5.07067
9.76586E+06 5.06258
9.81269E+06 5.05472
9.85951E+06 5.04707
9.90634E+06 5.03965
9.95317E+06 5.03245
1.00000E+07 5.02547
1.00625E+07 5.02427
1.01250E+07 5.02317
1.01875E+07 5.02218
1.02500E+07 5.02128
1.03125E+07 5.02049
1.03750E+07 5.01980
1.04375E+07 5.01920
1.05000E+07 5.01870
1.05625E+07 5.01830
1.06250E+07 5.01799
1.06875E+07 5.01777
1.07500E+07 5.01765
1.08125E+07 5.01761
1.08750E+07 5.01767
1.09375E+07 5.01781
1.10000E+07 5.01805
1.10625E+07 5.01837
1.11250E+07 5.01877
1.11875E+07 5.01926
1.12500E+07 5.01984
1.13125E+07 5.02050
1.13750E+07 5.02124
1.14375E+07 5.02206
1.15000E+07 5.02296
1.15625E+07 5.02394
1.16250E+07 5.02500
1.16875E+07 5.02614
1.17500E+07 5.02736
1.18125E+07 5.02865
1.18750E+07 5.03001
1.19375E+07 5.03145
1.20000E+07 5.03297
1.20485E+07 5.03932
1.20969E+07 5.04568
1.21453E+07 5.05205
1.21938E+07 5.05841
1.22422E+07 5.06478
1.22907E+07 5.07115
1.23391E+07 5.07752
1.23875E+07 5.08390
1.24360E+07 5.09027
1.24844E+07 5.09665
1.25329E+07 5.10304
1.25813E+07 5.10942
1.26297E+07 5.11581
1.26782E+07 5.12220
1.27266E+07 5.12859
1.27751E+07 5.13499
1.28235E+07 5.14139
1.28719E+07 5.14779
1.29204E+07 5.15419
1.29688E+07 5.16059
1.30173E+07 5.16700
1.30657E+07 5.17341
1.31141E+07 5.17982
1.31626E+07 5.18623
1.32110E+07 5.19265
1.32595E+07 5.19906
1.33079E+07 5.20548
1.33563E+07 5.21190
1.34048E+07 5.21833
1.34532E+07 5.22475
1.35017E+07 5.23118
1.35501E+07 5.23761
1.36063E+07 5.24465
1.36626E+07 5.25170
1.37188E+07 5.25875
1.37751E+07 5.26580
1.38313E+07 5.27285
1.38875E+07 5.27991
1.39438E+07 5.28697
1.39919E+07 5.29301
1.40000E+07 5.29403
1.40625E+07 5.30388
1.41250E+07 5.31372
1.41875E+07 5.32356
1.42500E+07 5.33338
1.43125E+07 5.34320
1.43750E+07 5.35302
1.44375E+07 5.36282
1.45000E+07 5.37262
1.45625E+07 5.38241
1.46250E+07 5.39219
1.46875E+07 5.40197
1.47500E+07 5.41174
1.48125E+07 5.42151
1.48750E+07 5.43126
1.49375E+07 5.44101
1.50000E+07 5.45075
1.50625E+07 5.46049
1.51250E+07 5.47022
1.51875E+07 5.47994
1.52500E+07 5.48966
1.53125E+07 5.49937
1.53750E+07 5.50907
1.54375E+07 5.51876
1.55000E+07 5.52845
1.55625E+07 5.53813
1.56250E+07 5.54781
1.56875E+07 5.55748
1.57500E+07 5.56714
1.58125E+07 5.57680
1.58750E+07 5.58644
1.59375E+07 5.59609
1.60000E+07 5.60572
1.61250E+07 5.61552
1.62500E+07 5.62527
1.63750E+07 5.63498
1.65000E+07 5.64464
1.66250E+07 5.65426
1.67500E+07 5.66384
1.68750E+07 5.67338
1.70000E+07 5.68288
1.71250E+07 5.69234
1.72500E+07 5.70176
1.73750E+07 5.71114
1.75000E+07 5.72048
1.76250E+07 5.72978
1.77500E+07 5.73905
1.78750E+07 5.74828
1.80000E+07 5.75747
1.85000E+07 5.76073
1.90000E+07 5.76441
1.95000E+07 5.76847
1.97500E+07 5.77062
2.00000E+07 5.77286
2.00000E+07 5.74860
2.05585E+07 5.74732
2.08046E+07 5.74449
2.10000E+07 5.74128
2.10125E+07 5.74105
2.13471E+07 5.73352
2.20000E+07 5.71200
2.30000E+07 5.66374
2.40000E+07 5.59870
2.50000E+07 5.52136
2.60000E+07 5.43210
2.60877E+07 5.42363
2.66648E+07 5.36791
2.68217E+07 5.35267
2.68877E+07 5.34623
2.70000E+07 5.33523
2.76084E+07 5.27443
2.80000E+07 5.23380
2.90000E+07 5.13068
3.00000E+07 5.03240
3.10000E+07 4.93853
3.20000E+07 4.84869
3.30000E+07 4.76298
3.36875E+07 4.70646
3.39330E+07 4.68676
3.40000E+07 4.68142
3.44436E+07 4.64657
3.48483E+07 4.61548
3.50000E+07 4.60400
3.56765E+07 4.55600
3.60000E+07 4.53500
3.70000E+07 4.47704
3.80000E+07 4.42790
3.90000E+07 4.38574
3.94743E+07 4.36772
4.00000E+07 4.34900
4.00293E+07 4.34800
4.09839E+07 4.31985
4.09881E+07 4.31974
4.10000E+07 4.31944
4.20000E+07 4.29887
4.23738E+07 4.29325
4.30000E+07 4.28615
4.40000E+07 4.28030
4.50000E+07 4.28050
4.60000E+07 4.28436
4.70000E+07 4.29066
4.78401E+07 4.29852
4.80000E+07 4.30032
4.90000E+07 4.31416
4.90984E+07 4.31578
4.93967E+07 4.32097
5.00000E+07 4.33290
5.09002E+07 4.35218
5.10000E+07 4.35432
5.20000E+07 4.37589
5.30000E+07 4.39778
5.40000E+07 4.42017
5.40702E+07 4.42177
5.50000E+07 4.44320
5.56829E+07 4.45926
5.57747E+07 4.46142
5.60000E+07 4.46675
5.70000E+07 4.49038
5.77190E+07 4.50725
5.80000E+07 4.51379
5.90000E+07 4.53672
6.00000E+07 4.55890
6.10000E+07 4.58009
6.20000E+07 4.60025
6.30000E+07 4.61949
6.40000E+07 4.63787
6.41865E+07 4.64122
6.50000E+07 4.65550
6.60000E+07 4.67160
6.66162E+07 4.68045
6.70000E+07 4.68560
6.80000E+07 4.69787
6.90000E+07 4.70873
7.00000E+07 4.71850
7.09330E+07 4.72648
7.10000E+07 4.72700
7.20000E+07 4.73393
7.30000E+07 4.73941
7.35367E+07 4.74178
7.40000E+07 4.74353
7.50000E+07 4.74640
7.60000E+07 4.74804
7.70000E+07 4.74844
7.80000E+07 4.74762
7.90000E+07 4.74560
8.00000E+07 4.74240
8.10000E+07 4.73815
8.20000E+07 4.73293
8.30000E+07 4.72676
8.40000E+07 4.71962
8.50000E+07 4.71150
8.60000E+07 4.70257
8.70000E+07 4.69295
8.80000E+07 4.68261
8.90000E+07 4.67154
9.00000E+07 4.65970
9.10000E+07 4.64719
9.20000E+07 4.63414
9.30000E+07 4.62060
9.40000E+07 4.60661
9.50000E+07 4.59220
9.60000E+07 4.57736
9.70000E+07 4.56205
9.80000E+07 4.54628
9.90000E+07 4.53006
1.00000E+08 4.51340
1.02000E+08 4.47928
1.04000E+08 4.44441
1.06000E+08 4.40882
1.08000E+08 4.37251
1.10000E+08 4.33550
1.12000E+08 4.29810
1.14000E+08 4.26056
1.16000E+08 4.22286
1.18000E+08 4.18498
1.20000E+08 4.14690
1.22000E+08 4.10907
1.24000E+08 4.07178
1.26000E+08 4.03484
1.28000E+08 3.99807
1.30000E+08 3.96130
1.32000E+08 3.92484
1.34000E+08 3.88903
1.36000E+08 3.85381
1.38000E+08 3.81911
1.40000E+08 3.78490
1.42000E+08 3.75126
1.44000E+08 3.71828
1.46000E+08 3.68587
1.48000E+08 3.65400
1.50000E+08 3.62260
